"Time (s)","Linear Acceleration x (m/s^2)","Linear Acceleration y (m/s^2)","Linear Acceleration z (m/s^2)","Absolute acceleration (m/s^2)"
3.607348200E-2,-3.047649860E-1,-3.604822159E-1,7.969856262E-3,4.721150742E-1
4.607248200E-2,-2.972886562E-1,-3.605070114E-1,8.073329926E-3,4.673446577E-1
5.607198200E-2,-2.442089468E-1,3.672580719E-1,-1.378083229E-2,4.412554956E-1
6.607131500E-2,-2.329937518E-1,4.988145828E-1,1.155143976E-2,5.506682415E-1
7.607106500E-2,-2.435853630E-1,6.595144272E-1,4.450857639E-3,7.030739071E-1
8.607086500E-2,-2.171081305E-1,7.936782837E-1,-5.119323730E-3,8.228531860E-1
9.607053100E-2,-2.017491907E-1,9.228572845E-1,-2.774715424E-3,9.446565527E-1
1.060702450E-1,-1.884976625E-1,1.051883698E0,-5.282998085E-2,1.069944713E0
1.160699950E-1,-1.752355695E-1,1.164083481E0,-4.151606560E-2,1.177930999E0
1.260698830E-1,-1.311981827E-1,1.254614830E0,-7.448750734E-2,1.263653324E0
1.360697830E-1,-1.313864291E-1,1.328356743E0,-6.262183189E-2,1.336306673E0
1.460696010E-1,-1.347783804E-1,1.416419029E0,-7.297790051E-2,1.424687282E0
1.560694340E-1,-1.173710972E-1,1.434998512E0,-1.103199124E-1,1.444010799E0
1.660692800E-1,-1.079486012E-1,1.494268417E0,-8.302813768E-2,1.500461487E0
1.760691370E-1,-9.688363969E-2,1.524792671E0,-1.233810186E-1,1.532841155E0
1.860690700E-1,-9.854167700E-2,1.533769608E0,-1.300364137E-1,1.542423139E0
1.960690070E-1,-1.285776049E-1,1.518907547E0,-1.505061388E-1,1.531752080E0
2.060688890E-1,-1.249310523E-1,1.475282669E0,-1.758135557E-1,1.490965167E0
2.160687770E-1,-1.329852790E-1,1.472390175E0,-1.697585583E-1,1.488098075E0
2.260686710E-1,-1.359674782E-1,1.409641266E0,-2.228661180E-1,1.433612556E0
2.360686210E-1,-1.459763795E-1,1.344609261E0,-2.028396130E-1,1.367635578E0
2.460685730E-1,-1.558179557E-1,1.272502899E0,-1.931834817E-1,1.296480899E0
2.560684820E-1,-1.702083200E-1,1.145462990E0,-2.321107984E-1,1.181072291E0
2.660683950E-1,-1.866063476E-1,1.078395844E0,-1.710877419E-1,1.107714106E0
2.760683110E-1,-2.027581334E-1,9.516353607E-1,-1.535685062E-1,9.850401040E-1
2.860682710E-1,-2.208779752E-1,8.249874115E-1,-1.680979133E-1,8.704299038E-1
2.960681940E-1,-2.169556469E-1,6.960334778E-1,-1.310452223E-1,7.407463839E-1
3.060681190E-1,-2.287110835E-1,5.384378433E-1,-1.453437805E-1,6.027842777E-1
3.160680470E-1,-2.611836791E-1,4.119777679E-1,-9.489518404E-2,4.969383176E-1
3.260679780E-1,-2.760821581E-1,2.447690964E-1,-7.561141253E-2,3.766302620E-1
3.360679110E-1,-2.637583613E-1,8.712100983E-2,-1.094125509E-1,2.985458923E-1
3.460679110E-1,-2.506088018E-1,-2.269268036E-2,-3.116619587E-2,2.535568202E-1
3.560679110E-1,-2.752142549E-1,-1.876220703E-1,-6.612175703E-2,3.395835893E-1
3.660679110E-1,-2.707028389E-1,-3.119077682E-1,-5.858182907E-2,4.171310508E-1
3.760678770E-1,-2.731893659E-1,-4.362640381E-1,-5.423587561E-2,5.175908333E-1
3.860678430E-1,-2.612352967E-1,-6.013813019E-1,-5.296802521E-2,6.578061737E-1
3.960678760E-1,-2.853308022E-1,-7.162570953E-1,-1.414936781E-2,7.711278091E-1
4.060678760E-1,-2.904521227E-1,-8.312320709E-1,-1.719361544E-2,8.806842861E-1
4.160678760E-1,-3.147369921E-1,-9.773902893E-1,-3.541427851E-2,1.027426554E0
4.260678420E-1,-3.031529784E-1,-1.051796913E0,1.007115841E-2,1.094659720E0
4.360678420E-1,-2.986671925E-1,-1.150212288E0,-3.157484531E-2,1.188775576E0
4.460678750E-1,-3.202660978E-1,-1.243908882E0,-4.497647285E-3,1.284484297E0
4.560678750E-1,-3.153185546E-1,-1.287360191E0,-2.595949173E-2,1.325668114E0
4.660678750E-1,-3.147853911E-1,-1.338048935E0,-5.739063025E-2,1.375775592E0
4.760678750E-1,-3.163368106E-1,-1.355224609E0,-3.858989477E-2,1.392189606E0
4.860678410E-1,-3.223316669E-1,-1.369974136E0,-6.237643957E-2,1.408764586E0
4.960678070E-1,-3.136905432E-1,-1.399004936E0,-6.836670637E-2,1.435371232E0
5.060678400E-1,-3.163746595E-1,-1.377693176E0,-4.230844975E-2,1.414185779E0
5.160678400E-1,-3.108572364E-1,-1.334678650E0,-7.430434227E-2,1.372414098E0
5.260678400E-1,-3.163890243E-1,-1.282029152E0,-3.578025103E-2,1.320977285E0
5.360678060E-1,-2.922932804E-1,-1.246079445E0,-3.478014469E-2,1.280374556E0
5.460678060E-1,-2.840732038E-1,-1.183752060E0,-4.970055819E-2,1.218374602E0
5.560678390E-1,-2.796723247E-1,-1.078276634E0,-2.582156658E-2,1.114254846E0
5.660678390E-1,-2.599915862E-1,-9.919700623E-1,-7.598280907E-2,1.028286739E0
5.760678390E-1,-2.301028669E-1,-8.482351303E-1,-3.530591726E-2,8.796002919E-1
5.860678050E-1,-2.236557603E-1,-7.116994858E-1,-2.590250969E-2,7.464643308E-1
5.960678380E-1,-2.193918973E-1,-6.087169647E-1,-4.783391953E-2,6.488121697E-1
6.060678710E-1,-1.886973977E-1,-4.674386978E-1,-6.027120352E-2,5.076792906E-1
6.160678710E-1,-1.845493317E-1,-3.190069199E-1,-6.582027674E-2,3.743743842E-1
6.260678710E-1,-1.712081432E-1,-1.706008911E-1,-6.688827276E-2,2.507806480E-1
6.360678710E-1,-1.581204385E-1,-4.376029968E-2,-7.524961233E-2,1.804980361E-1
6.460678370E-1,-1.524544656E-1,1.166000366E-1,-7.899183035E-2,2.075515403E-1
6.560678370E-1,-1.253286004E-1,2.410030365E-1,-7.810688019E-2,2.826489102E-1
6.660678700E-1,-1.103886068E-1,3.989381790E-1,-9.404319525E-2,4.244778413E-1
6.760678700E-1,-9.778340161E-2,5.329036713E-1,-8.382666111E-2,5.482470480E-1
6.860678700E-1,-8.518381417E-2,6.812171936E-1,-9.777432680E-2,6.934500458E-1
6.960678360E-1,-6.543813646E-2,8.031692505E-1,-1.022911072E-1,8.122970302E-1
7.060678690E-1,-4.568430781E-2,9.110031128E-1,-1.028694510E-1,9.179301997E-1
7.160679020E-1,-3.510278463E-2,1.035552025E0,-1.212270260E-1,1.043214356E0
7.260679020E-1,-1.641646028E-2,1.143305779E0,-1.090050936E-1,1.148607728E0
7.360678680E-1,-3.945559263E-3,1.239052773E0,-1.237256527E-1,1.245221016E0
7.460678340E-1,1.336038113E-3,1.298748970E0,-1.228921413E-1,1.304550938E0
7.560678670E-1,4.382967949E-3,1.375230789E0,-1.143462062E-1,1.379983329E0
7.660678670E-1,2.696841955E-2,1.408642769E0,-1.125102043E-1,1.413386109E0
7.760678670E-1,3.537639976E-2,1.461226463E0,-1.197317243E-1,1.466550358E0
7.860678670E-1,4.425454140E-2,1.477935791E0,-1.261172891E-1,1.483967061E0
7.960678670E-1,6.292304397E-2,1.501805305E0,-1.155915856E-1,1.507560911E0
8.060678330E-1,7.702043653E-2,1.489790916E0,-1.310153604E-1,1.497522670E0
8.160678660E-1,8.633545041E-2,1.468224525E0,-1.173127294E-1,1.475431918E0
8.260678660E-1,9.536492825E-2,1.439470291E0,-1.105445027E-1,1.446854960E0
8.360678660E-1,1.016267538E-1,1.398757935E0,-1.038411260E-1,1.406284017E0
8.460678320E-1,1.238640547E-1,1.307791710E0,-9.966176748E-2,1.317419420E0
8.560677980E-1,1.212174594E-1,1.238364220E0,-9.327054024E-2,1.247773620E0
8.660678310E-1,1.271841824E-1,1.147392273E0,-8.492344618E-2,1.157539129E0
8.760678310E-1,1.296725571E-1,1.049295425E0,-6.947940588E-2,1.059558045E0
8.860678310E-1,1.310919523E-1,9.583787918E-1,-6.877511740E-2,9.697448249E-1
8.960677970E-1,1.170893013E-1,8.099937439E-1,-7.088595629E-2,8.214770772E-1
9.060677970E-1,1.356121302E-1,6.975727081E-1,-5.399638414E-2,7.126808139E-1
9.160678300E-1,1.052995920E-1,5.588264465E-1,-3.514850140E-2,5.697459246E-1
9.260678300E-1,1.022198796E-1,4.105195999E-1,-4.058247805E-2,4.249966861E-1
9.360678300E-1,8.625710011E-2,2.646389008E-1,-3.199970722E-2,2.801749746E-1
9.460678300E-1,9.573763609E-2,1.331233978E-1,-2.145230770E-2,1.653715076E-1
9.560677960E-1,7.087850571E-2,-3.189849854E-2,-1.125037670E-2,7.853564640E-2
9.660677620E-1,6.682345271E-2,-1.729879379E-1,-1.345348358E-2,1.859333126E-1
9.760677950E-1,4.537996650E-2,-3.140754700E-1,-1.112997532E-2,3.175320748E-1
9.860677950E-1,2.600765228E-2,-4.623174667E-1,2.458369732E-2,4.637005458E-1
9.960677950E-1,1.131558418E-2,-5.866689682E-1,2.417862415E-2,5.872760225E-1
1.006067761E0,1.120147109E-2,-7.325525284E-1,2.852529287E-2,7.331932706E-1
1.016067761E0,6.773412228E-3,-8.281745911E-1,3.294324875E-2,8.288572193E-1
1.026067794E0,-1.623404026E-2,-9.333810806E-1,3.045600653E-2,9.340189260E-1
1.036067794E0,-3.114569187E-2,-1.048168182E0,3.335821629E-2,1.049161267E0
1.046067794E0,-3.579691052E-2,-1.095937729E0,4.839199781E-2,1.097589500E0
1.056067760E0,-1.603668928E-2,-1.193973541E0,6.847912073E-2,1.196043219E0
1.066067793E0,-2.241382003E-2,-1.244120598E0,7.418411970E-2,1.246531879E0
1.076067793E0,-1.662832499E-2,-1.272730827E0,5.361944437E-2,1.273968330E0
1.086067793E0,-1.802286506E-2,-1.296590805E0,6.866550446E-2,1.298532822E0
1.096067793E0,-3.141883016E-2,-1.325225830E0,7.874590158E-2,1.327935074E0
1.106067793E0,-2.346286178E-2,-1.310780525E0,7.660174370E-2,1.313226530E0
1.116067759E0,-1.817572117E-2,-1.291577339E0,6.441116333E-2,1.293310163E0
1.126067792E0,-2.282333374E-2,-1.262807846E0,5.196988583E-2,1.264082841E0
1.136067825E0,-3.309351206E-2,-1.193316460E0,7.742428780E-2,1.196283358E0
1.146067825E0,-2.483829856E-2,-1.169322968E0,4.514133930E-2,1.170457553E0
1.156067825E0,-1.248928905E-2,-1.075877190E0,5.593377352E-2,1.077402569E0
1.166067791E0,-2.498516440E-2,-9.991655350E-1,4.983001947E-2,1.000719269E0
1.176067824E0,-2.153235674E-2,-9.272184372E-1,4.150152206E-2,9.283964934E-1
1.186067824E0,-3.797194362E-2,-7.786455154E-1,6.893455982E-2,7.826127272E-1
1.196067824E0,-3.132739663E-2,-7.042493820E-1,3.667330742E-2,7.058990929E-1
1.206067790E0,-4.196962714E-2,-5.699863434E-1,5.475485325E-2,5.741463012E-1
1.216067756E0,-6.504347920E-2,-4.405097961E-1,3.453391790E-2,4.466230247E-1
1.226067789E0,-5.710682273E-2,-3.373718262E-1,3.840535879E-2,3.443194881E-1
1.236067789E0,-7.326141000E-2,-1.839284897E-1,5.192464590E-2,2.046780212E-1
1.246067789E0,-7.233241200E-2,-4.250812531E-2,2.229553461E-2,8.681019184E-2
1.256067789E0,-9.500044584E-2,9.652042389E-2,1.176679134E-2,1.359401865E-1
1.266067789E0,-7.650193572E-2,2.451066971E-1,8.405745029E-3,2.569056163E-1
1.276067755E0,-9.096060693E-2,3.817119598E-1,-2.072155476E-3,3.924055888E-1
1.286067788E0,-7.387796044E-2,5.350370407E-1,6.567418575E-3,5.401534217E-1
1.296067788E0,-7.073539495E-2,6.668062210E-1,-1.828193665E-2,6.707967365E-1
1.306067788E0,-7.667355239E-2,7.889738083E-1,-9.849905968E-3,7.927518681E-1
1.316067754E0,-7.285618782E-2,9.063386917E-1,-3.984963894E-2,9.101350680E-1
1.326067754E0,-7.835617661E-2,9.997253418E-1,-4.842418432E-2,1.003959835E0
1.336067787E0,-8.359056711E-2,1.105059624E0,-5.254280567E-2,1.109461537E0
1.346067787E0,-7.439057529E-2,1.217527390E0,-9.080612659E-2,1.223173191E0
1.356067787E0,-8.430764079E-2,1.289270401E0,-7.911819220E-2,1.294444141E0
1.366067753E0,-8.229734004E-2,1.356191635E0,-7.982414961E-2,1.361029206E0
1.376067786E0,-9.485103190E-2,1.406327248E0,-1.071764827E-1,1.413591116E0
1.386067819E0,-9.089432657E-2,1.434906006E0,-1.251375079E-1,1.443217385E0
1.396067819E0,-8.955743909E-2,1.475446701E0,-1.239285469E-1,1.483348168E0
1.406067819E0,-9.118723869E-2,1.458541870E0,-1.394724846E-1,1.468029997E0
1.416067819E0,-1.073945910E-1,1.451229095E0,-1.451132894E-1,1.462414904E0
1.426067785E0,-1.143954098E-1,1.431974411E0,-1.504014730E-1,1.444388323E0
1.436067785E0,-1.336608678E-1,1.403172493E0,-1.432332397E-1,1.416782987E0
1.446067818E0,-1.409880668E-1,1.343279839E0,-1.738075018E-1,1.361795656E0
1.456067818E0,-1.649124920E-1,1.266668320E0,-1.512898207E-1,1.286286660E0
1.466067818E0,-1.551714242E-1,1.190073967E0,-1.665632129E-1,1.211650742E0
1.476067784E0,-1.810734868E-1,1.091938019E0,-1.599362493E-1,1.118345138E0
1.486067817E0,-1.849507093E-1,1.001020432E0,-1.480952501E-1,1.028679188E0
1.496067850E0,-1.860347688E-1,8.646621704E-1,-1.284074187E-1,8.937214719E-1
1.506067850E0,-2.153379321E-1,7.737989426E-1,-1.346281171E-1,8.144077348E-1
1.516067850E0,-2.321276963E-1,6.326961517E-1,-1.213046908E-1,6.847645696E-1
1.526067816E0,-2.555280626E-1,4.868097305E-1,-1.052123904E-1,5.597749116E-1
1.536067849E0,-2.493330091E-1,3.672571182E-1,-1.058338284E-1,4.563392812E-1
1.546067849E0,-2.632562518E-1,1.998386383E-1,-8.939075470E-2,3.423887301E-1
1.556067849E0,-2.434143722E-1,8.288097382E-2,-5.947721004E-2,2.639267909E-1
1.566067849E0,-2.318671197E-1,-5.574417114E-2,-6.893295050E-2,2.482368334E-1
1.576067849E0,-1.879399717E-1,-1.968650818E-1,-5.034005642E-2,2.767876707E-1
1.586067815E0,-1.880735755E-1,-3.380899429E-1,-4.214841127E-2,3.891695876E-1
1.596067848E0,-2.041461021E-1,-4.602031708E-1,-2.937793732E-2,5.043071015E-1
1.606067881E0,-2.005736530E-1,-5.871276855E-1,-2.432698011E-2,6.209190860E-1
1.616067881E0,-1.966177523E-1,-6.853570938E-1,-3.861075640E-2,7.140473913E-1
1.626067847E0,-1.972006559E-1,-8.123531342E-1,-1.264262199E-2,8.360415954E-1
1.636067813E0,-1.928867847E-1,-9.250106812E-1,-1.327800751E-2,9.450007288E-1
1.646067846E0,-1.860702485E-1,-1.016137123E0,-4.693984985E-3,1.033043476E0
1.656067846E0,-1.812113374E-1,-1.081007957E0,-6.318330765E-3,1.096109335E0
1.666067846E0,-1.929999441E-1,-1.165020943E0,-1.042592525E-2,1.180945162E0
1.676067812E0,-1.949142069E-1,-1.215555191E0,1.935422421E-3,1.231084772E0
1.686067812E0,-1.728029698E-1,-1.254096031E0,-9.441971779E-3,1.265980597E0
1.696067845E0,-1.814613342E-1,-1.271098137E0,8.021175861E-3,1.284010525E0
1.706067845E0,-1.733907908E-1,-1.290482521E0,-5.469322205E-3,1.302090403E0
1.716067845E0,-1.630078256E-1,-1.278721809E0,-2.575343847E-2,1.289327056E0
1.726067845E0,-1.524737179E-1,-1.262133598E0,-9.549438953E-3,1.271345998E0
1.736067811E0,-1.443804502E-1,-1.262268066E0,2.390444279E-3,1.270500728E0
1.746067777E0,-1.361235380E-1,-1.204907417E0,2.439248562E-2,1.212817585E0
1.756067810E0,-1.418144554E-1,-1.142743111E0,3.262042999E-2,1.151971028E0
1.766067810E0,-1.564556956E-1,-1.085332870E0,1.746559143E-2,1.096690873E0
1.776067810E0,-1.248242259E-1,-9.992027283E-1,2.652531862E-2,1.007318605E0
1.786067776E0,-1.043860316E-1,-8.915367126E-1,4.058754444E-2,8.985441015E-1
1.796067776E0,-9.047135711E-2,-7.934961319E-1,4.011344910E-2,7.996438373E-1
1.806067809E0,-7.596549392E-2,-6.595516205E-1,4.677009583E-2,6.655573140E-1
1.816067842E0,-6.806319952E-2,-5.448265076E-1,2.674663067E-2,5.497125656E-1
1.826067842E0,-4.069501162E-2,-4.157371521E-1,2.118349075E-2,4.182609280E-1
1.836067808E0,-3.000235558E-2,-2.938547134E-1,6.136238575E-3,2.954460820E-1
1.846067841E0,-1.439246535E-2,-1.552076340E-1,2.238875628E-2,1.574732012E-1
1.856067874E0,1.783514023E-2,-2.376747131E-2,2.415460348E-2,3.829399155E-2
1.866067874E0,1.163381338E-2,1.148576736E-1,2.104765177E-2,1.173483466E-1
1.876067874E0,3.642496467E-2,2.414588928E-1,3.424894810E-2,2.465809510E-1
1.886067874E0,5.413877964E-2,3.919696808E-1,3.993690014E-3,3.957109901E-1
1.896067840E0,7.431486249E-2,5.304756165E-1,-4.917085171E-3,5.356783141E-1
1.906067840E0,8.493512869E-2,6.617517471E-1,-2.503395081E-5,6.671801492E-1
1.916067873E0,1.052887440E-1,7.857971191E-1,-1.475834846E-2,7.929568973E-1
1.926067873E0,1.422300339E-1,9.050064087E-1,-2.977865934E-2,9.165984676E-1
1.936067873E0,1.525711119E-1,1.019441605E0,-4.730021954E-2,1.031880051E0
1.946067839E0,1.769076586E-1,1.105146408E0,-5.769795179E-2,1.120702439E0
1.956067872E0,1.742142439E-1,1.198049545E0,-6.091064215E-2,1.212181266E0
1.966067905E0,1.873728931E-1,1.286223412E0,-6.614512205E-2,1.301481634E0
1.976067905E0,1.829985380E-1,1.319362640E0,-8.802914619E-2,1.334899012E0
1.986067871E0,1.829184294E-1,1.374097824E0,-8.558279276E-2,1.388858667E0
1.996067837E0,2.015533149E-1,1.390553474E0,-1.068209410E-1,1.409139247E0
2.006067870E0,2.150017619E-1,1.428622246E0,-9.169888496E-2,1.447617340E0
2.016067870E0,2.209047973E-1,1.423616409E0,-9.542071819E-2,1.443810141E0
2.026067870E0,2.289007306E-1,1.418632507E0,-1.133550406E-1,1.441444796E0
2.036067870E0,2.340928912E-1,1.392148018E0,-1.189251542E-1,1.416692902E0
2.046067870E0,2.483477890E-1,1.356126785E0,-1.171914935E-1,1.383651086E0
2.056067836E0,2.452510893E-1,1.322537422E0,-1.103886366E-1,1.349606973E0
2.066067869E0,2.386127710E-1,1.245968819E0,-1.171044707E-1,1.274004634E0
2.076067869E0,2.238707244E-1,1.171844482E0,-9.722554684E-2,1.196992230E0
2.086067869E0,2.274297774E-1,1.095441818E0,-8.864700794E-2,1.122308056E0
2.096067835E0,2.372656763E-1,9.975318909E-1,-1.062270999E-1,1.030848714E0
2.106067801E0,2.103893161E-1,8.709487915E-1,-6.141763926E-2,8.981022148E-1
2.116067801E0,2.091549635E-1,7.443981171E-1,-5.493456125E-2,7.751723431E-1
2.126067801E0,1.977698505E-1,6.274213791E-1,-5.587756634E-2,6.602217833E-1
2.136067801E0,1.906641722E-1,5.056848526E-1,-5.696666241E-2,5.434291098E-1
2.146067767E0,1.952161193E-1,3.719654083E-1,-8.198022842E-3,4.201604524E-1
2.156067767E0,1.874594092E-1,2.406177521E-1,-4.132634401E-2,3.078080562E-1
2.166067800E0,1.841134727E-1,9.966659546E-2,1.537263393E-3,2.093646681E-1
2.176067800E0,1.393455267E-1,-3.649711609E-2,-4.297614098E-3,1.441099746E-1
2.186067800E0,1.564924121E-1,-1.942796707E-1,-1.404166222E-3,2.494723175E-1
2.196067800E0,1.349053979E-1,-3.161430359E-1,2.025771141E-2,3.443199971E-1
2.206067766E0,1.298299730E-1,-4.547815323E-1,-8.969843388E-3,4.730354343E-1
2.216067732E0,1.148720682E-1,-5.790920258E-1,3.788280487E-2,5.915896156E-1
2.226067765E0,9.993281960E-2,-6.866788864E-1,4.359143972E-2,6.952802853E-1
2.236067765E0,9.950640798E-2,-7.990732193E-1,2.509200573E-2,8.056358630E-1
2.246067765E0,8.000323176E-2,-9.162702560E-1,2.092605829E-2,9.199943473E-1
2.256067731E0,7.275912166E-2,-9.832096100E-1,3.350245953E-2,9.864671519E-1
2.266067731E0,7.515081763E-2,-1.064496040E0,4.635304213E-2,1.068151707E0
2.276067764E0,4.661402106E-2,-1.109866142E0,5.222010612E-2,1.112071338E0
2.286067764E0,6.842026114E-2,-1.181571960E0,4.878425598E-2,1.184556260E0
2.296067764E0,4.946419597E-2,-1.212532043E0,7.199513912E-2,1.215674283E0
2.306067730E0,5.170696974E-2,-1.236286163E0,4.520332813E-2,1.238192404E0
2.316067763E0,5.124562979E-2,-1.267194748E0,4.755383730E-2,1.269121748E0
2.326067763E0,2.878302336E-2,-1.235816956E0,6.688046455E-2,1.237960018E0
2.336067763E0,2.996200323E-2,-1.221170425E0,6.719839573E-2,1.223384876E0
2.346067763E0,3.563061357E-2,-1.196931839E0,9.403872490E-2,1.201148887E0
2.356067763E0,1.200270653E-2,-1.158305168E0,8.495205641E-2,1.161478273E0
2.366067729E0,2.390906215E-2,-1.083760262E0,7.822453976E-2,1.086842687E0
2.376067762E0,1.636326313E-2,-1.023573875E0,8.575749397E-2,1.027290408E0
2.386067795E0,3.781288862E-3,-9.514379501E-1,1.026424766E-1,9.569660125E-1
2.396067795E0,1.007071137E-2,-8.601617813E-1,1.097055078E-1,8.671879887E-1
2.406067795E0,-3.100454807E-3,-7.377672195E-1,1.021093726E-1,7.448062883E-1
2.416067761E0,-7.019013166E-3,-6.369485855E-1,8.219295740E-2,6.422682067E-1
2.426067794E0,-2.075731754E-2,-5.122022629E-1,6.430435181E-2,5.166401785E-1
2.436067794E0,-2.504917979E-2,-3.922739029E-1,9.407502413E-2,4.041737083E-1
2.446067794E0,-1.744747162E-2,-2.819404602E-1,7.805222273E-2,2.930648168E-1
2.456067760E0,-2.888327837E-2,-1.572475433E-1,6.688642502E-2,1.733055899E-1
2.466067726E0,-2.335619926E-2,-3.876686096E-3,6.011343002E-2,6.460777978E-2
2.476067759E0,-3.652262688E-2,1.135644913E-1,3.902447224E-2,1.255137657E-1
2.486067759E0,-3.717172146E-2,2.525281906E-1,3.219652176E-2,2.572719183E-1
2.496067759E0,-4.227051139E-2,3.938684464E-1,1.814776659E-2,3.965456980E-1
2.506067759E0,-2.544707060E-2,5.591268539E-1,2.087116241E-2,5.600946327E-1
2.516067759E0,-3.714174032E-2,6.405954361E-1,-7.499396801E-3,6.417150946E-1
2.526067725E0,-3.666210175E-2,7.771148682E-1,-1.900833845E-2,7.782113755E-1
2.536067758E0,-5.767184496E-2,8.776979446E-1,-3.531050682E-2,8.802991285E-1
2.546067758E0,-4.272167385E-2,9.950809479E-1,-4.171586037E-2,9.968708278E-1
2.556067758E0,-5.642530322E-2,1.083719254E0,-3.619891405E-2,1.085790770E0
2.566067724E0,-4.611176252E-2,1.179534912E0,-4.969763756E-2,1.181481595E0
2.576067724E0,-5.257037282E-2,1.239434242E0,-7.043063641E-2,1.242546321E0
2.586067757E0,-5.170580745E-2,1.294541359E0,-7.919806242E-2,1.297991970E0
2.596067757E0,-6.276991963E-2,1.354413986E0,-8.817189932E-2,1.358731612E0
2.606067757E0,-6.665435433E-2,1.385548592E0,-9.461933374E-2,1.390374238E0
2.616067723E0,-7.550416887E-2,1.402333260E0,-1.009708643E-1,1.407989548E0
2.626067756E0,-7.264950871E-2,1.402388573E0,-1.047223806E-1,1.408168469E0
2.636067789E0,-8.700484037E-2,1.385694504E0,-1.344725490E-1,1.394920057E0
2.646067789E0,-1.087961793E-1,1.359420776E0,-1.186601520E-1,1.368919898E0
2.656067789E0,-1.210453510E-1,1.287687302E0,-1.169081926E-1,1.298637012E0
2.666067789E0,-1.213355064E-1,1.263833046E0,-1.078267694E-1,1.274214615E0
2.676067755E0,-1.429180950E-1,1.196888924E0,-1.057452559E-1,1.210020965E0
2.686067755E0,-1.444756240E-1,1.115567207E0,-1.083411574E-1,1.130089026E0
2.696067788E0,-1.570808291E-1,1.024662971E0,-1.132735610E-1,1.042803669E0
2.706067788E0,-1.712997854E-1,9.217529297E-1,-9.437417984E-2,9.422730844E-1
2.716067788E0,-1.797559857E-1,8.236351013E-1,-1.352656484E-1,8.538054756E-1
2.726067754E0,-2.014764547E-1,7.087326050E-1,-1.113907695E-1,7.451862658E-1
2.736067787E0,-1.888003647E-1,5.986213684E-1,-8.034986258E-2,6.328105726E-1
2.746067820E0,-2.134888172E-1,4.669485092E-1,-8.508062363E-2,5.204393316E-1
2.756067820E0,-2.155089378E-1,3.256988525E-1,-1.041055918E-1,4.041804289E-1
2.766067820E0,-2.237466723E-1,1.796312332E-1,-6.085139513E-2,2.933135619E-1
2.776067786E0,-2.070285082E-1,6.708049774E-2,-8.214032650E-2,2.326104676E-1
2.786067819E0,-1.988273114E-1,-5.983161926E-2,-7.692104578E-2,2.214248624E-1
2.796067819E0,-2.274784744E-1,-2.154951096E-1,-5.976593494E-2,3.189930493E-1
2.806067819E0,-2.169530541E-1,-3.233070374E-1,-4.986679554E-2,3.925337761E-1
2.816067819E0,-2.152214795E-1,-4.574613571E-1,-4.479354620E-2,5.075407770E-1
2.826067819E0,-1.937891245E-1,-5.725059509E-1,-4.963237047E-2,6.064492236E-1
2.836067785E0,-1.694850475E-1,-6.755895615E-1,-3.517901897E-2,6.974123603E-1
2.846067818E0,-1.928381026E-1,-7.690954208E-1,-1.594185829E-2,7.930626980E-1
2.856067851E0,-1.801552176E-1,-8.626317978E-1,-1.359963417E-2,8.813480987E-1
2.866067851E0,-1.746768355E-1,-9.394025803E-1,-2.561712265E-2,9.558480223E-1
2.876067817E0,-1.646121889E-1,-1.040126801E0,1.021569967E-2,1.053121690E0
2.886067783E0,-1.714500636E-1,-1.092962265E0,-6.621360779E-3,1.106347811E0
2.896067816E0,-1.542009860E-1,-1.145825386E0,1.220083237E-2,1.156219105E0
2.906067816E0,-1.417605281E-1,-1.184359550E0,6.903707981E-3,1.192833288E0
2.916067816E0,-1.411021203E-1,-1.218095779E0,2.311420441E-2,1.226458887E0
2.926067782E0,-1.521504074E-1,-1.235106468E0,3.192907572E-2,1.244852280E0
2.936067782E0,-1.198754907E-1,-1.225807190E0,2.392554283E-2,1.231887102E0
2.946067815E0,-1.281053722E-1,-1.194952011E0,4.718971252E-2,1.202725307E0
2.956067815E0,-9.780505300E-2,-1.180858612E0,5.141419172E-2,1.186016994E0
2.966067815E0,-8.638846874E-2,-1.114105225E0,3.186136484E-2,1.117903648E0
2.976067815E0,-8.677959442E-2,-1.064097404E0,2.932560444E-2,1.068032759E0
2.986067781E0,-6.556537747E-2,-1.006891251E0,4.154896736E-2,1.009878768E0
2.996067747E0,-5.134031177E-2,-9.352798462E-1,5.221444368E-2,9.381420822E-1
3.006067780E0,-5.849099159E-2,-8.397111893E-1,4.626315832E-2,8.430162260E-1
3.016067780E0,-4.865935445E-2,-7.513427734E-1,5.493128300E-2,7.549179703E-1
3.026067780E0,-2.411994338E-2,-6.294651031E-1,3.984308243E-2,6.311858355E-1
3.036067746E0,-1.139765978E-2,-5.099630356E-1,4.907411337E-2,5.124455804E-1
3.046067746E0,1.369541883E-2,-3.952598572E-1,4.893249273E-2,3.985126197E-1
3.056067779E0,1.731586456E-2,-2.566471100E-1,7.028448582E-2,2.666598717E-1
3.066067779E0,5.227378011E-2,-1.324062347E-1,4.844141006E-2,1.503679796E-1
3.076067779E0,6.096920371E-2,-5.805969238E-3,3.838253021E-2,7.227843181E-2
3.086067745E0,6.497669220E-2,1.135816574E-1,4.266661406E-2,1.376343103E-1
3.096067778E0,9.509813786E-2,2.712831497E-1,3.492724895E-2,2.895826581E-1
3.106067811E0,1.107446253E-1,4.050064087E-1,3.174728155E-2,4.210729782E-1
3.116067811E0,1.283928752E-1,5.267229080E-1,2.555757761E-2,5.427475859E-1
3.126067811E0,1.553699970E-1,6.412286758E-1,-1.862049103E-4,6.597833625E-1
3.136067811E0,1.630079746E-1,7.604999542E-1,-7.193624973E-3,7.778068709E-1
3.146067777E0,1.630615294E-1,8.773670197E-1,-1.699632406E-2,8.925529814E-1
3.156067777E0,1.722572148E-1,9.822301865E-1,-3.162622452E-3,9.972254958E-1
3.166067810E0,2.146538198E-1,1.053574562E0,-7.331907749E-2,1.077715782E0
3.176067810E0,2.230767608E-1,1.053097725E0,-7.418417931E-2,1.079018699E0
3.186067810E0,2.429298759E-1,1.222621918E0,-6.080168486E-2,1.248004857E0
3.195445037E0,2.308178842E-1,1.284449577E0,-7.593423128E-2,1.307231280E0
3.205445070E0,2.463645935E-1,1.320025444E0,-8.834278584E-2,1.345721789E0
3.215445103E0,2.419935167E-1,1.362847328E0,-1.459140778E-1,1.391834983E0
3.225445103E0,2.511537075E-1,1.369829178E0,-9.056115150E-2,1.395604343E0
3.235445069E0,2.641551197E-1,1.367282867E0,-9.718221426E-2,1.395952990E0
3.245445035E0,2.548171878E-1,1.369616508E0,-1.271480918E-1,1.398909510E0
3.255445068E0,2.758494020E-1,1.321749687E0,-9.901952744E-2,1.353853757E0
3.265445068E0,2.696125209E-1,1.293135643E0,-1.135290265E-1,1.325812786E0
3.275445068E0,2.722378671E-1,1.235839844E0,-1.107630730E-1,1.270307850E0
3.285445068E0,2.548149526E-1,1.190631866E0,-1.122304201E-1,1.222755318E0
3.295445068E0,2.368466258E-1,1.121504784E0,-9.908360243E-2,1.150515912E0
3.305445034E0,2.421486080E-1,1.026097298E0,-1.072064638E-1,1.059719226E0
3.315445067E0,2.273275554E-1,9.211626053E-1,-9.596765041E-2,9.536394249E-1
3.325445067E0,2.238955200E-1,8.234691620E-1,-7.023870945E-2,8.562500458E-1
3.335445067E0,2.247955203E-1,6.874704361E-1,-5.665063858E-2,7.255052869E-1
3.345445033E0,2.107559443E-1,6.017694473E-1,-4.791712761E-2,6.394064333E-1
3.355444999E0,1.890918612E-1,4.801397324E-1,-3.010165691E-2,5.169100544E-1
3.365445032E0,1.791189611E-1,3.393487930E-1,-2.469062805E-2,3.845137614E-1
3.375445032E0,1.616598666E-1,2.105102539E-1,-3.412580490E-2,2.676061472E-1
3.385445032E0,1.678283513E-1,7.681941986E-2,-6.164371967E-3,1.846769564E-1
3.395444998E0,1.618219018E-1,7.717227936E-2,-5.400955677E-3,1.793629252E-1
3.405444998E0,1.365148425E-1,-1.835098267E-1,-6.591677666E-4,2.287194640E-1
3.415445031E0,1.254201531E-1,-3.149538040E-1,1.500594616E-2,3.393394936E-1
3.425445031E0,1.190294325E-1,-4.249067307E-1,8.386671543E-3,4.413434851E-1
3.435445031E0,9.334880114E-2,-5.564346313E-1,2.275997400E-2,5.646693847E-1
3.445445031E0,9.156602621E-2,-6.664619446E-1,1.281118393E-2,6.728446977E-1
3.455444997E0,8.255869150E-2,-7.597150803E-1,3.146332502E-2,7.648351989E-1
3.465444963E0,7.598423958E-2,-8.553724289E-1,7.161200047E-3,8.587705628E-1
3.475444996E0,6.682321429E-2,-9.294672012E-1,2.381891012E-2,9.321705641E-1
3.485444996E0,4.800531268E-2,-1.008333206E0,4.070281982E-2,1.010295543E0
3.495444996E0,7.674553990E-2,-1.082356453E0,4.855847359E-2,1.086159884E0
3.505444962E0,4.298865795E-2,-1.125227928E0,3.770947456E-2,1.126680043E0
3.515444962E0,3.509944677E-2,-1.158482552E0,5.845427513E-2,1.160487267E0
3.525444995E0,2.209493518E-2,-1.179726601E0,6.513613462E-2,1.181729984E0
3.535444995E0,1.129704714E-2,-1.186578751E0,7.221025229E-2,1.188827605E0
3.545444995E0,9.903401136E-3,-1.174273491E0,9.857469797E-2,1.178445281E0
3.555444961E0,-1.079624891E-2,-1.154789925E0,8.412432671E-2,1.157900355E0
3.565444994E0,-1.970127225E-2,-1.144892693E0,8.157575130E-2,1.147964294E0
3.575444994E0,-2.398556471E-2,-1.082331657E0,8.868664503E-2,1.086223939E0
3.585444994E0,-2.361240983E-2,-1.043717384E0,8.836632967E-2,1.047717582E0
3.595444994E0,-4.749852419E-2,-9.620227814E-1,9.500384331E-2,9.678686233E-1
3.605444994E0,-4.524722695E-2,-8.875093460E-1,1.062480211E-1,8.949909456E-1
3.615444960E0,-5.500507355E-2,-8.154306412E-1,1.054647565E-1,8.240603762E-1
3.625444993E0,-4.807657003E-2,-7.026939392E-1,9.677857161E-2,7.109544435E-1
3.635445026E0,-6.510365009E-2,-6.019439697E-1,8.307349682E-2,6.111270194E-1
3.645445026E0,-7.478609681E-2,-4.964427948E-1,9.551203251E-2,5.110488794E-1
3.655445026E0,-7.472938299E-2,-3.766231537E-1,7.896840572E-2,3.920019001E-1
3.665444992E0,-8.861145377E-2,-2.496442795E-1,7.153785229E-2,2.743937323E-1
3.675445025E0,-8.552983403E-2,-1.155471802E-1,4.457896948E-2,1.505117533E-1
3.685445025E0,-8.441427350E-2,-5.422592163E-3,2.685809135E-2,8.874982337E-2
3.695445025E0,-7.823406160E-2,1.477756500E-1,2.108997107E-2,1.685318902E-1
3.705444991E0,-1.004397124E-1,2.674388885E-1,1.526051760E-2,2.860849146E-1
3.715444957E0,-1.059035063E-1,3.942594528E-1,2.106130123E-3,4.082407434E-1
3.725444990E0,-1.062874198E-1,5.258884430E-1,-2.508538961E-2,5.371079471E-1
3.735444990E0,-8.494605124E-2,6.240234375E-1,-2.075737715E-2,6.301205844E-1
3.745444990E0,-9.438453615E-2,7.340822220E-1,-5.004858971E-2,7.418153481E-1
3.755444990E0,-1.060936749E-1,8.465623856E-1,-5.516964197E-2,8.549663326E-1
3.765444990E0,-1.058080047E-1,9.470682144E-1,-7.458156347E-2,9.558744406E-1
3.775444956E0,-1.076996326E-1,1.030805588E0,-8.194261789E-2,1.039650885E0
3.785444989E0,-1.213322729E-1,1.102560043E0,-8.684444427E-2,1.112610501E0
3.795444989E0,-1.108145118E-1,1.191067696E0,-1.062136889E-1,1.200917757E0
3.805444989E0,-1.240965128E-1,1.238877296E0,-1.279619932E-1,1.251635399E0
3.815444955E0,-1.273316145E-1,1.265100479E0,-1.330772042E-1,1.278437368E0
3.825444955E0,-1.447000355E-1,1.315264702E0,-1.525714993E-1,1.331967492E0
3.835444988E0,-1.476450115E-1,1.327109337E0,-1.599746943E-1,1.344845770E0
3.845444988E0,-1.263430566E-1,1.327000618E0,-1.768835187E-1,1.344686204E0
3.855444988E0,-1.669270396E-1,1.314933777E0,-1.696310639E-1,1.336297187E0
3.865444954E0,-1.664853692E-1,1.269357681E0,-1.859210134E-1,1.293658736E0
3.875444987E0,-1.728767306E-1,1.257308006E0,-2.019250393E-1,1.285100583E0
3.885445020E0,-1.980358660E-1,1.190223694E0,-2.104586959E-1,1.224803457E0
3.895445020E0,-1.961588562E-1,1.139884949E0,-2.068012357E-1,1.174982019E0
3.905445020E0,-1.793165356E-1,1.058447838E0,-1.835967302E-1,1.089116158E0
3.915445020E0,-2.022995055E-1,9.770402908E-1,-1.982271075E-1,1.017264374E0
3.925444986E0,-2.221200466E-1,8.621101379E-1,-1.815771461E-1,9.085931240E-1
3.935444986E0,-1.999429464E-1,7.639760971E-1,-2.003414631E-1,8.147228735E-1
3.945445019E0,-2.152849138E-1,6.634693146E-1,-1.922964454E-1,7.235447798E-1
3.955445019E0,-2.201862931E-1,5.390205383E-1,-1.863253713E-1,6.113446560E-1
3.965445019E0,-2.027426213E-1,4.265737534E-1,-1.656017303E-1,5.004934272E-1
3.975444985E0,-1.988299787E-1,4.266529083E-1,-1.637791991E-1,4.983870892E-1
3.985445018E0,-2.157212794E-1,1.753454208E-1,-1.354168057E-1,3.092238643E-1
3.995445051E0,-2.223525792E-1,5.095767975E-2,-1.329974532E-1,2.640562008E-1
4.005445051E0,-2.138941735E-1,-6.387710571E-2,-1.209519506E-1,2.538904812E-1
4.015445051E0,-2.166606039E-1,-2.074394226E-1,-9.917736053E-2,3.159257510E-1
4.025445017E0,-1.996306032E-1,-3.318891525E-1,-9.442919493E-2,3.986472879E-1
4.035445050E0,-1.890372932E-1,-4.467840195E-1,-5.623894930E-2,4.883788260E-1
4.045445050E0,-1.828098893E-1,-5.473613739E-1,-4.716986418E-2,5.790068440E-1
4.055445050E0,-1.857599467E-1,-6.431684494E-1,-5.258804560E-2,6.715191097E-1
4.065445050E0,-1.691151112E-1,-7.605543137E-1,-4.630368948E-2,7.805042066E-1
4.075445050E0,-1.691405475E-1,-8.276987076E-1,-4.038995504E-2,8.457688950E-1
4.085445016E0,-1.427094638E-1,-9.260044098E-1,-2.032446861E-2,9.371569997E-1
4.095445049E0,-1.375622004E-1,-9.884319305E-1,-7.689058781E-3,9.979880570E-1
4.105445082E0,-1.443994492E-1,-1.067633629E0,4.841685295E-3,1.077365401E0
4.115445082E0,-1.250134110E-1,-1.101340294E0,1.753026247E-2,1.108551355E0
4.125445048E0,-1.248728633E-1,-1.127870560E0,2.302670479E-2,1.134995798E0
4.135445014E0,-1.128310859E-1,-1.144819260E0,3.112018108E-2,1.150786886E0
4.145445047E0,-8.901238441E-2,-1.180889130E0,3.240031004E-2,1.184682287E0
4.155445047E0,-1.010779738E-1,-1.152328491E0,6.503450871E-2,1.158579818E0
4.165445047E0,-1.009760201E-1,-1.142907143E0,8.589434624E-2,1.150569742E0
4.175445013E0,-8.892086148E-2,-1.123921394E0,5.416136980E-2,1.128733660E0
4.185445013E0,-8.838582039E-2,-1.071423531E0,9.664452076E-2,1.079398258E0
4.195445046E0,-3.971919417E-2,-1.026137352E0,9.612715244E-2,1.031395127E0
4.205445046E0,-3.868651390E-2,-9.617023468E-1,8.129030466E-2,9.659069126E-1
4.215445046E0,-3.744649887E-2,-8.685674667E-1,1.120270491E-1,8.765624589E-1
4.225445046E0,-4.997253418E-3,-7.778053284E-1,8.055651188E-2,7.819817472E-1
4.235445012E0,3.718852997E-3,-7.014627457E-1,1.233711243E-1,7.122388979E-1
4.245444978E0,3.169342875E-2,-5.915727615E-1,9.232962132E-2,5.995728184E-1
4.255445011E0,3.578135371E-2,-4.865045547E-1,9.935516119E-2,4.978337424E-1
4.265445011E0,4.475244880E-2,-3.383646011E-1,1.063894033E-1,3.575081679E-1
4.275445011E0,7.304435968E-2,-2.237586975E-1,8.937048912E-2,2.517747357E-1
4.285444977E0,8.702886105E-2,-1.091966629E-1,1.007677913E-1,1.721977979E-1
4.295444977E0,1.155267954E-1,2.927017212E-2,7.357847691E-2,1.400606144E-1
4.305445010E0,1.249219477E-1,1.389398575E-1,8.419191837E-2,2.049342727E-1
4.315445010E0,1.317247748E-1,2.485828400E-1,6.564444304E-2,2.888841248E-1
4.325445010E0,1.525628269E-1,4.204864502E-1,5.413776636E-2,4.505720461E-1
4.335444976E0,1.634168029E-1,4.199743271E-1,5.435752869E-2,4.539143397E-1
4.345445009E0,2.019280493E-1,6.469564438E-1,4.240274429E-3,6.777503649E-1
4.355445042E0,2.061616778E-1,7.614316940E-1,-2.820968628E-3,7.888528506E-1
4.365445042E0,2.359232306E-1,8.544044495E-1,-2.811551094E-4,8.863784818E-1
4.375445042E0,2.384503782E-1,9.521970749E-1,2.276837826E-3,9.816022801E-1
4.385445042E0,2.593170106E-1,1.033288956E0,-1.650559902E-2,1.065459437E0
4.395445008E0,2.579335272E-1,1.102436066E0,-4.967767000E-2,1.133297337E0
4.405445008E0,2.462076247E-1,1.174021721E0,-5.405300856E-2,1.200777633E0
4.415445041E0,2.649762034E-1,1.216922760E0,-5.832833052E-2,1.246802144E0
4.425445041E0,2.733725905E-1,1.269432068E0,-6.964212656E-2,1.300400082E0
4.435445041E0,2.786180377E-1,1.302847862E0,-8.559888601E-2,1.335053457E0
4.445445007E0,2.877406478E-1,1.312389374E0,-1.085280776E-1,1.347938757E0
4.455445040E0,2.811477184E-1,1.312462807E0,-1.117548347E-1,1.346882252E0
4.465445073E0,2.689384520E-1,1.312612534E0,-1.074526310E-1,1.344182139E0
4.475445073E0,2.653078735E-1,1.274520874E0,-1.028529406E-1,1.305898332E0
4.485445039E0,2.705836296E-1,1.236464500E0,-1.124342084E-1,1.270709020E0
4.495445005E0,2.559481263E-1,1.188909531E0,-1.122525334E-1,1.221317300E0
4.505445038E0,2.575935423E-1,1.117447853E0,-9.975051880E-2,1.151083969E0
4.515445038E0,2.396937609E-1,1.057978630E0,-8.953398466E-2,1.088479772E0
4.525445038E0,2.191511393E-1,9.745979309E-1,-8.415693045E-2,1.002472313E0
4.535445038E0,2.342961431E-1,8.816137314E-1,-9.321850538E-2,9.169662719E-1
4.545445038E0,2.155976593E-1,7.982339859E-1,-7.847946882E-2,8.305533541E-1
4.555445004E0,2.036348879E-1,6.693582535E-1,-6.882762909E-2,7.030255199E-1
4.565445037E0,1.961483657E-1,5.691995621E-1,-6.190085411E-2,6.052223051E-1
4.575445037E0,1.835778058E-1,4.522790909E-1,-4.584246874E-2,4.902639277E-1
4.585445037E0,1.705398560E-1,3.329343796E-1,-4.224282503E-2,3.764486683E-1
4.595445003E0,1.666701436E-1,1.920242310E-1,-1.998245716E-2,2.550520352E-1
4.605444969E0,1.481384635E-1,5.351352692E-2,-1.968437433E-2,1.587330354E-1
4.615445002E0,1.436546743E-1,-5.869293213E-2,-2.705186605E-2,1.575224720E-1
4.625445002E0,1.199324727E-1,-1.756992340E-1,-3.494322300E-3,2.127586170E-1
4.635445002E0,1.151909232E-1,-3.047342300E-1,2.596020699E-3,3.257892556E-1
4.645444968E0,1.151643991E-1,-4.170141220E-1,2.516043186E-2,4.333551247E-1
4.655444968E0,9.824949503E-2,-5.340938568E-1,2.333265543E-2,5.435564589E-1
4.665445001E0,6.683143973E-2,-6.296625137E-1,1.642113924E-2,6.334121694E-1
4.675445001E0,6.152728200E-2,-7.276172638E-1,2.413010597E-2,7.306125861E-1
4.685445001E0,7.282286882E-2,-8.255586624E-1,3.661239147E-2,8.295726264E-1
4.695445001E0,6.227061152E-2,-9.067220688E-1,3.969883919E-2,9.097244291E-1
4.705444967E0,3.709813952E-2,-9.615364075E-1,5.981636047E-2,9.641091908E-1
4.715444933E0,3.809666634E-2,-1.025896072E0,7.062929869E-2,1.029029934E0
4.725444966E0,5.191713572E-3,-1.078271866E0,7.452291250E-2,1.080856528E0
4.735444966E0,5.744129419E-3,-1.118672371E0,7.371681929E-2,1.121113303E0
4.745444966E0,1.346379519E-3,-1.118371010E0,7.781100273E-2,1.121075412E0
4.755444932E0,-1.027816534E-2,-1.134820938E0,1.202760935E-1,1.141223265E0
4.765444932E0,-1.240202785E-2,-1.132128716E0,1.053609848E-1,1.137088464E0
4.775444965E0,-3.604826331E-2,-1.115078926E0,1.191427112E-1,1.122005113E0
4.785444965E0,-5.734285712E-2,-1.081266403E0,1.089120507E-1,1.088249545E0
4.795444965E0,-4.275324941E-2,-1.052289009E0,1.128484011E-1,1.059185895E0
4.805444931E0,-5.446779728E-2,-1.001757622E0,1.190738082E-1,1.010278994E0
4.815444964E0,-4.230368137E-2,-8.889999390E-1,1.251220703E-1,8.987580461E-1
4.825444964E0,-7.070109248E-2,-8.600759506E-1,1.310065985E-1,8.728642587E-1
4.835444964E0,-7.743972540E-2,-7.617416382E-1,1.319296956E-1,7.769508858E-1
4.845444964E0,-9.372648597E-2,-6.753864288E-1,1.182941198E-1,6.920440602E-1
4.855444964E0,-7.867527008E-2,-5.771131516E-1,1.139183640E-1,5.934869682E-1
4.865444930E0,-9.457826614E-2,-4.501171112E-1,9.263360500E-2,4.691816780E-1
4.875444963E0,-8.167713881E-2,-3.470764160E-1,8.330321312E-2,3.661592807E-1
4.885444996E0,-1.092204899E-1,-2.249145508E-1,9.775954485E-2,2.684634038E-1
4.895444996E0,-9.817504883E-2,-1.051340103E-1,6.457358599E-2,1.576745013E-1
4.905444996E0,-9.421953559E-2,1.939678192E-2,7.910817862E-2,1.245458147E-1
4.915444962E0,-1.017668843E-1,1.534948349E-1,3.381055593E-2,1.872440033E-1
4.925444995E0,-9.243907034E-2,2.708425522E-1,4.850935936E-2,2.902650991E-1
4.935444995E0,-1.139047593E-1,3.666143417E-1,3.430515528E-2,3.854312045E-1
4.945444995E0,-1.328132451E-1,5.102739334E-1,1.560461521E-2,5.275057812E-1
4.955444961E0,-1.203088015E-1,6.180181503E-1,6.533205509E-3,6.296533369E-1
4.965444927E0,-1.099986285E-1,7.401294708E-1,-1.686233282E-2,7.484488427E-1
4.975444960E0,-1.162801981E-1,8.334779739E-1,-1.407283545E-2,8.416677861E-1
4.985444960E0,-1.369196624E-1,9.004812241E-1,-4.495638609E-2,9.119399681E-1
4.995444960E0,-1.238216162E-1,1.001008034E0,-6.855064631E-2,1.010963930E0
5.005444960E0,-1.393630356E-1,1.089551926E0,-7.052403688E-2,1.100690281E0
5.015444960E0,-1.307297200E-1,1.137367249E0,-8.230537176E-2,1.147810390E0
5.025444926E0,-1.361903995E-1,1.199556351E0,-9.165561199E-2,1.210736972E0
5.035444959E0,-1.437533647E-1,1.235383987E0,-9.877109528E-2,1.247635506E0
5.045444959E0,-1.486127973E-1,1.247256279E0,-1.178165078E-1,1.261592136E0
5.055444959E0,-1.579867601E-1,1.266310692E0,-1.225885749E-1,1.282002552E0
5.065444925E0,-1.502968818E-1,1.275757790E0,-1.370313764E-1,1.291868681E0
5.075444925E0,-1.611751169E-1,1.268465996E0,-1.610184312E-1,1.288763103E0
5.085444958E0,-1.669167429E-1,1.222851753E0,-1.535537839E-1,1.243706707E0
5.095444958E0,-1.748554260E-1,1.186870575E0,-1.599773169E-1,1.210301171E0
5.105444958E0,-1.869606525E-1,1.155673027E0,-1.684027910E-1,1.182748465E0
5.115444924E0,-1.818072796E-1,1.083818436E0,-1.764419079E-1,1.113035505E0
5.125444957E0,-2.189745307E-1,1.011971474E0,-1.935718656E-1,1.053330991E0
5.135444990E0,-2.027360201E-1,9.186096191E-1,-1.527517438E-1,9.530365268E-1
5.145444990E0,-2.260864973E-1,8.444261551E-1,-1.282337904E-1,8.835239333E-1
5.155444990E0,-2.242050022E-1,7.415065765E-1,-1.609089971E-1,7.911963040E-1
5.165444990E0,-2.066404819E-1,6.338109970E-1,-1.549227834E-1,6.844105037E-1
5.175444956E0,-2.114361227E-1,5.117483139E-1,-1.223242283E-1,5.670580108E-1
5.185444956E0,-1.984172761E-1,4.040470123E-1,-1.542366147E-1,4.758280540E-1
5.195444989E0,-2.083651870E-1,2.963399887E-1,-1.022272706E-1,3.764091589E-1
5.205444989E0,-2.009591162E-1,1.694631577E-1,-1.028854847E-1,2.822901896E-1
5.215444989E0,-2.000101209E-1,6.410694122E-2,-1.250852346E-1,2.444587169E-1
5.225444955E0,-1.840808988E-1,-6.997966766E-2,-6.823116541E-2,2.084188646E-1
5.235444988E0,-1.892389953E-1,-1.921243668E-1,-9.758210182E-2,2.867846513E-1
5.245445021E0,-1.721548736E-1,-2.975273132E-1,-6.734395027E-2,3.502784753E-1
5.255445021E0,-1.737261862E-1,-4.149656296E-1,-6.844639778E-2,4.550408453E-1
5.265445021E0,-1.533128917E-1,-5.156688690E-1,-5.541646481E-2,5.408236402E-1
5.275444987E0,-1.398175061E-1,-6.116132736E-1,-4.256421328E-2,6.288333990E-1
5.285445020E0,-1.307921112E-1,-7.123889923E-1,-2.286875248E-2,7.246569068E-1
5.295445020E0,-1.386123151E-1,-7.916326523E-1,-2.482932806E-2,8.040597774E-1
5.305445020E0,-1.082493365E-1,-8.900690079E-1,-1.980054379E-2,8.968460398E-1
5.315445020E0,-1.212137341E-1,-9.358158112E-1,-3.190040588E-4,9.436334582E-1
5.325445020E0,-8.186960220E-2,-1.000736237E0,-2.441465855E-3,1.004082471E0
5.335444986E0,-8.107551932E-2,-1.036922455E0,3.132444620E-2,1.040558810E0
5.345445019E0,-7.570487261E-2,-1.068305969E0,3.904736042E-2,1.071696584E0
5.355445052E0,-6.560477614E-2,-1.092508316E0,4.933232069E-2,1.095587552E0
5.365445052E0,-5.560410023E-2,-1.102323532E0,4.558074474E-2,1.104665827E0
5.375445018E0,-5.526486039E-2,-1.114523888E0,5.643504858E-2,1.117319388E0
5.385444984E0,-4.537475109E-2,-1.100354195E0,6.292390823E-2,1.103085509E0
5.395445017E0,-1.378646493E-2,-1.059876442E0,7.680147886E-2,1.062744845E0
5.405445017E0,-1.086795330E-2,-1.036144257E0,8.360773325E-2,1.039568798E0
5.415445017E0,-5.579859018E-3,-9.669189453E-1,8.582133055E-2,9.707361549E-1
5.425444983E0,-2.763032913E-3,-9.096841812E-1,1.119660139E-1,9.165529620E-1
5.435444983E0,9.640306234E-3,-8.332986832E-1,1.020948291E-1,8.395850076E-1
5.445445016E0,4.618635774E-2,-7.593421936E-1,1.137200594E-1,7.691982830E-1
5.455445016E0,5.165541172E-2,-6.590681076E-1,1.251945496E-1,6.728393027E-1
5.465445016E0,5.728131533E-2,-5.516633987E-1,1.290606260E-1,5.694473635E-1
5.475445016E0,6.311213970E-2,-4.586086273E-1,1.115804911E-1,4.761882204E-1
5.485444982E0,9.799531102E-2,-3.392963409E-1,9.121036530E-2,3.647525445E-1
5.495444948E0,1.235640645E-1,-2.248163223E-1,9.214270115E-2,2.725816102E-1
5.505444981E0,1.275322139E-1,-1.103458405E-1,8.572858572E-2,1.891826115E-1
5.515444981E0,1.626372337E-1,1.606655121E-2,6.726175547E-2,1.767290231E-1
5.525444981E0,1.638840735E-1,1.496515274E-1,7.738715410E-2,2.350368925E-1
5.535444947E0,1.814544499E-1,2.928380966E-1,4.442435503E-2,3.473519707E-1
5.545444947E0,2.080518901E-1,4.025211334E-1,6.174540520E-2,4.572978755E-1
5.555444980E0,2.148481905E-1,5.098333359E-1,4.084455967E-2,5.547594554E-1
5.565444980E0,2.328269184E-1,6.219682693E-1,2.471530437E-2,6.645778722E-1
5.575444980E0,2.212116420E-1,7.269611359E-1,1.817142963E-2,7.600903134E-1
5.585444946E0,2.421495914E-1,8.224258423E-1,-2.759814262E-3,8.573379190E-1
5.595444979E0,2.452536821E-1,9.299144745E-1,-1.402449608E-2,9.618144233E-1
5.605445012E0,2.595373392E-1,9.943351746E-1,-8.623361588E-3,1.027684987E0
5.615445012E0,2.658644319E-1,1.075577736E0,-5.091774464E-2,1.109118559E0
5.625445012E0,2.594905496E-1,1.137725830E0,-4.520332813E-2,1.167817944E0
5.635445012E0,2.855787873E-1,1.195129395E0,-5.847764015E-2,1.230166309E0
5.645444978E0,2.891967893E-1,1.240631104E0,-7.407498360E-2,1.276043660E0
5.655444978E0,2.869872451E-1,1.255084991E0,-7.497346401E-2,1.289659271E0
5.665445011E0,2.838785350E-1,1.255248070E0,-7.810491323E-2,1.289315755E0
5.675445011E0,2.845230103E-1,1.267426491E0,-9.554642439E-2,1.302479317E0
5.685445011E0,2.986028194E-1,1.260528564E0,-8.394807577E-2,1.298130650E0
5.695444977E0,2.587467730E-1,1.227359772E0,-9.615099430E-2,1.258017057E0
5.705445010E0,2.637054026E-1,1.184680939E0,-9.156709909E-2,1.217125302E0
5.715445043E0,2.514767051E-1,1.151586533E0,-9.879499674E-2,1.182857780E0
5.725445043E0,2.459841371E-1,1.077802658E0,-7.503998280E-2,1.108060361E0
5.735445009E0,2.306057215E-1,1.030380249E0,-8.236253262E-2,1.059077921E0
5.745444975E0,2.292507589E-1,9.302835464E-1,-9.469640255E-2,9.627828394E-1
5.755445008E0,2.013025880E-1,8.421611786E-1,-7.585442066E-2,8.692019764E-1
5.765445008E0,1.945315003E-1,7.779741287E-1,-6.438696384E-2,8.045072596E-1
5.775445008E0,1.899035871E-1,6.300230026E-1,-7.205736637E-2,6.619551497E-1
5.785445008E0,1.848877072E-1,5.419111252E-1,-5.598956347E-2,5.753137953E-1
5.795445008E0,1.650161147E-1,4.106931686E-1,-3.569149971E-2,4.440417548E-1
5.805444974E0,1.400690675E-1,3.009958267E-1,-2.773004770E-2,3.331467948E-1
5.815445007E0,1.364447176E-1,1.960878372E-1,-3.442537785E-2,2.413559768E-1
5.825445007E0,1.016834974E-1,4.802608490E-2,-1.771396399E-2,1.138412184E-1
5.835445007E0,1.147962213E-1,-6.174755096E-2,-2.308535576E-2,1.323777403E-1
5.845444973E0,1.135083735E-1,-1.811666489E-1,1.151013374E-2,2.140980819E-1
5.855444939E0,7.397225499E-2,-2.958202362E-1,-1.162707806E-2,3.051502836E-1
5.865444972E0,7.047283649E-2,-4.009466171E-1,5.507588387E-3,4.071301315E-1
5.875444972E0,6.933221221E-2,-5.156421661E-1,1.305407286E-2,5.204461624E-1
5.885444972E0,4.420614243E-2,-6.040344238E-1,2.025038004E-2,6.059883217E-1
5.895444938E0,3.573268652E-2,-7.091856003E-1,2.288502455E-2,7.104539147E-1
5.905444938E0,3.181433678E-2,-7.664356232E-1,3.043556213E-2,7.676991858E-1
5.915444971E0,1.390665770E-3,-8.691596985E-1,5.030643940E-2,8.706154451E-1
5.925444971E0,-7.674545050E-3,-9.359531403E-1,5.343091488E-2,9.375084224E-1
5.935444971E0,-2.544760704E-3,-9.835987091E-1,5.665111542E-2,9.852320768E-1
5.945444971E0,-2.869713306E-2,-1.019274712E0,6.953680515E-2,1.022046883E0
5.955444937E0,-4.306319356E-2,-1.071717262E0,7.274067402E-2,1.075045829E0
5.965444903E0,-4.791533947E-2,-1.069108963E0,8.291351795E-2,1.073389261E0
5.975444936E0,-5.039295554E-2,-1.092840195E0,8.348816633E-2,1.097182489E0
5.985444936E0,-6.487035751E-2,-1.095062256E0,8.872920275E-2,1.100564573E0
5.995444936E0,-7.222142816E-2,-1.056573868E0,8.686286211E-2,1.062595610E0
6.005444902E0,-8.187735081E-2,-1.037266731E0,9.682226181E-2,1.044988384E0
6.015444902E0,-9.886965156E-2,-9.916076660E-1,1.116924286E-1,1.002764264E0
6.025444935E0,-1.063401699E-1,-9.363803864E-1,9.798735380E-2,9.474798052E-1
6.035444935E0,-1.017072201E-1,-8.739852905E-1,1.129802465E-1,8.871071991E-1
6.045444935E0,-1.161828041E-1,-7.996311188E-1,9.456610680E-2,8.135423275E-1
6.055444901E0,-1.258269697E-1,-7.300453186E-1,1.241825223E-1,7.511457198E-1
6.065444934E0,-1.305259764E-1,-6.484985352E-1,1.155856848E-1,6.715261954E-1
6.075444934E0,-1.298993081E-1,-5.430679321E-1,9.465044737E-2,5.663526431E-1
6.085444934E0,-1.431534886E-1,-4.328889847E-1,9.012562037E-2,4.647670619E-1
6.095444934E0,-1.320739239E-1,-3.299303055E-1,8.763730526E-2,3.660298145E-1
6.105444934E0,-1.394409388E-1,-2.198295593E-1,6.812781096E-2,2.690914514E-1
6.115444900E0,-1.487672627E-1,-8.823490143E-2,4.328024387E-2,1.782982776E-1
6.125444933E0,-1.457226723E-1,2.898311615E-2,3.273004293E-2,1.521393242E-1
6.135444966E0,-1.351120621E-1,1.437911987E-1,1.760339737E-2,1.980935581E-1
6.145444966E0,-1.433863789E-1,2.562103271E-1,-1.902258396E-2,2.942197208E-1
6.155444966E0,-1.585454792E-1,3.758049011E-1,9.101450443E-3,4.079814078E-1
6.165444932E0,-1.662454754E-1,5.025901794E-1,-2.247059345E-2,5.298484445E-1
6.175444965E0,-1.640086770E-1,5.934638977E-1,-2.994036674E-2,6.164370767E-1
6.185444965E0,-1.589885801E-1,7.226266861E-1,-3.044474125E-2,7.405360075E-1
6.195444965E0,-1.537288874E-1,7.943019867E-1,-8.373886347E-2,8.133636420E-1
6.205444931E0,-1.648611128E-1,8.970918655E-1,-7.024174929E-2,9.148152300E-1
6.215444897E0,-1.755457819E-1,9.806852341E-1,-9.288614988E-2,1.000593667E0
6.225444930E0,-1.715622544E-1,1.040311813E0,-1.157228351E-1,1.060695079E0
6.235444930E0,-1.481844038E-1,1.119097710E0,-1.121874452E-1,1.134426870E0
6.245444930E0,-1.629754156E-1,1.152386665E0,-1.613424420E-1,1.174983998E0
6.255444930E0,-1.655141860E-1,1.200044632E0,-1.791672707E-1,1.224582776E0
6.265444930E0,-1.653380841E-1,1.223781586E0,-1.919171214E-1,1.249724063E0
6.275444896E0,-1.745519787E-1,1.216416359E0,-1.946719885E-1,1.244200279E0
6.285444929E0,-1.667690426E-1,1.223471642E0,-1.896846294E-1,1.249269799E0
6.295444929E0,-1.729370654E-1,1.216172218E0,-2.009059787E-1,1.244727000E0
6.305444929E0,-1.712583005E-1,1.168212891E0,-1.996760964E-1,1.197464533E0
6.315444895E0,-1.902678162E-1,1.132270813E0,-2.119917870E-1,1.167552805E0
6.325444895E0,-1.941286176E-1,1.110716820E0,-2.023702264E-1,1.145570374E0
6.335444928E0,-1.779740155E-1,1.038891792E0,-2.186274529E-1,1.076461272E0
6.345444928E0,-1.800705343E-1,9.766731262E-1,-1.987443566E-1,1.012825312E0
6.355444928E0,-1.957074404E-1,8.953018188E-1,-2.216250300E-1,9.428596942E-1
6.365444894E0,-2.034972012E-1,7.972059250E-1,-1.983884573E-1,8.463488511E-1
6.375444927E0,-1.746787131E-1,7.206640244E-1,-2.011218667E-1,7.683223894E-1
6.385444960E0,-1.738563180E-1,6.273946762E-1,-1.939279437E-1,6.793071076E-1
6.395444960E0,-1.889832467E-1,4.982194901E-1,-1.886052489E-1,5.652515084E-1
6.405444960E0,-1.795581430E-1,3.881959915E-1,-1.543618441E-1,4.547140128E-1
6.415444960E0,-1.768630892E-1,2.901859283E-1,-1.602593660E-1,3.757279464E-1
6.425444926E0,-1.635732204E-1,1.633892059E-1,-1.279250979E-1,2.642291841E-1
6.435444926E0,-1.448115706E-1,7.011032104E-2,-1.195937395E-1,2.004707226E-1
6.445444959E0,-1.493087262E-1,-8.068275452E-2,-9.965461493E-2,1.968091585E-1
6.455444959E0,-1.364979297E-1,-1.669054031E-1,-8.019769192E-2,2.300451438E-1
6.465444959E0,-1.207977384E-1,-2.914800644E-1,-8.272826672E-2,3.261850513E-1
6.475444925E0,-1.143631786E-1,-4.065389633E-1,-5.710208416E-2,4.261613701E-1
6.485444958E0,-1.078236550E-1,-4.953136444E-1,-4.871338606E-2,5.092489970E-1
6.495444991E0,-9.650203586E-2,-6.056709290E-1,-5.732256174E-2,6.159835982E-1
6.505444991E0,-9.255522490E-2,-7.016677856E-1,-3.033667803E-2,7.083956981E-1
6.515444991E0,-7.672369480E-2,-7.785530090E-1,-2.014410496E-2,7.825836046E-1
6.525444957E0,-7.088103890E-2,-8.721551895E-1,1.248121262E-4,8.750307491E-1
6.535444990E0,-7.225409150E-2,-9.130601883E-1,-3.193080425E-3,9.159201695E-1
6.545444990E0,-5.951255560E-2,-9.683122635E-1,1.303952932E-2,9.702269906E-1
6.555444990E0,-2.767974138E-2,-1.018779755E0,2.692699432E-2,1.019511363E0
6.565444990E0,-4.144662619E-2,-1.045298576E0,5.783504248E-2,1.047717437E0
6.575444990E0,-4.334563017E-2,-1.050272942E0,5.529981852E-2,1.052620618E0
6.585444956E0,-2.136039734E-2,-1.060013771E0,8.414739370E-2,1.063562995E0
6.595444989E0,-8.905619383E-3,-1.079344749E0,8.192074299E-2,1.082485753E0
6.605445022E0,1.057836413E-2,-1.043636322E0,7.712221146E-2,1.046535480E0
6.615445022E0,1.079690456E-2,-1.022286415E0,1.010537744E-1,1.027325631E0
6.625444988E0,1.099491119E-2,-9.722185135E-1,1.203294396E-1,9.796983720E-1
6.635444954E0,2.555045485E-2,-9.269371033E-1,1.205041409E-1,9.350863421E-1
6.645444987E0,4.015365243E-2,-8.697013855E-1,1.253370643E-1,8.796034308E-1
6.655444987E0,4.512470961E-2,-7.933197021E-1,1.374223828E-1,8.063977310E-1
6.665444987E0,7.676261663E-2,-7.313442230E-1,1.447196603E-1,7.494669118E-1
6.675444953E0,6.298604608E-2,-6.382560730E-1,1.302720904E-1,6.544531108E-1
6.685444953E0,9.014442563E-2,-5.236434937E-1,1.491135359E-1,5.518726053E-1
6.695444986E0,1.029321849E-1,-4.282426834E-1,1.340095401E-1,4.603752680E-1
6.705444986E0,1.253646910E-1,-2.921915054E-1,1.136552691E-1,3.376532272E-1
6.715444986E0,1.380906701E-1,-1.968584061E-1,1.023957729E-1,2.613563841E-1
6.725444986E0,1.648695171E-1,-8.958148956E-2,5.728805065E-2,1.961854268E-1
6.735444952E0,1.860850751E-1,4.644298553E-2,8.133131266E-2,2.083251989E-1
6.745444918E0,1.970434785E-1,1.561441422E-1,6.472223997E-2,2.596075767E-1
6.755444951E0,1.999892890E-1,2.730817795E-1,6.728130579E-2,3.451030978E-1
6.765444951E0,2.261826098E-1,3.876609802E-1,4.373079538E-2,4.509456631E-1
6.775444951E0,2.181634307E-1,4.927110672E-1,4.445266724E-2,5.406806061E-1
6.785444917E0,2.357998788E-1,6.050071716E-1,2.389377356E-2,6.497739399E-1
6.795444917E0,2.407367527E-1,7.149543762E-1,1.556700468E-2,7.545570064E-1
6.805444950E0,2.522346377E-1,8.057832718E-1,7.308542728E-3,8.443710135E-1
6.815444983E0,2.582489550E-1,8.990554810E-1,-3.290355206E-3,9.354165420E-1
6.825444983E0,2.753374577E-1,9.732189178E-1,-2.349847555E-2,1.011690642E0
6.835444949E0,2.743540108E-1,1.040271759E0,-1.484209299E-2,1.075944117E0
6.845444982E0,2.723690569E-1,1.112174988E0,-2.779787779E-2,1.145378029E0
6.855445015E0,2.837311029E-1,1.150606155E0,-5.037754774E-2,1.186143230E0
6.865445015E0,2.846086025E-1,1.198663712E0,-4.897230864E-2,1.232961896E0
6.875445015E0,2.773649991E-1,1.208473206E0,-7.860851288E-2,1.242384051E0
6.885445015E0,2.501285672E-1,1.215951920E0,-7.698941231E-2,1.243796905E0
6.895444981E0,2.606925070E-1,1.221062660E0,-9.208112955E-2,1.251971860E0
6.905444981E0,2.442380190E-1,1.199873924E0,-7.833749056E-2,1.226982643E0
6.915445014E0,2.417545021E-1,1.181103706E0,-7.398271561E-2,1.207859531E0
6.925445014E0,2.220740318E-1,1.155199051E0,-9.102678299E-2,1.179867619E0
6.935445014E0,2.163032293E-1,1.088595390E0,-9.617370367E-2,1.114036082E0
6.945444980E0,2.220455408E-1,1.050738335E0,-8.705437183E-2,1.077466349E0
6.955445013E0,1.938858330E-1,9.769630432E-1,-8.767640591E-2,9.998678194E-1
6.965445046E0,1.940455437E-1,9.008169174E-1,-8.127629757E-2,9.250570946E-1
6.975445046E0,1.890221834E-1,8.222618103E-1,-6.803005934E-2,8.464466666E-1
6.985445012E0,1.812718213E-1,7.125692368E-1,-5.986291170E-2,7.376977420E-1
6.995444978E0,1.684966385E-1,6.100425720E-1,-6.160783768E-2,6.358762321E-1
7.005445011E0,1.458600760E-1,5.075311661E-1,-6.820195913E-2,5.324608469E-1
7.015445011E0,1.231146157E-1,3.930149078E-1,-3.916442394E-2,4.137049413E-1
7.025445011E0,1.219155490E-1,2.713088989E-1,-3.412222862E-2,2.993931299E-1
7.035445011E0,1.134634018E-1,1.663303375E-1,-3.190910816E-2,2.038575873E-1
7.045445011E0,8.827671409E-2,5.175876617E-2,-2.758991718E-2,1.059856200E-1
7.055444977E0,7.265785336E-2,-5.806541443E-2,-4.390120506E-3,9.311299139E-2
7.065445010E0,5.952185392E-2,-1.798753738E-1,-1.247370243E-2,1.898778409E-1
7.075445010E0,5.827018619E-2,-2.897243500E-1,7.241368294E-4,2.955268819E-1
7.085445010E0,4.274392128E-2,-3.828325272E-1,1.387625933E-2,3.854612007E-1
7.095444976E0,3.430926800E-2,-4.927339554E-1,1.003235579E-2,4.940288704E-1
7.105444942E0,3.305503726E-2,-5.858650208E-1,2.295488119E-2,5.872455914E-1
7.115444942E0,1.011806726E-2,-6.670637131E-1,4.039347172E-2,6.683621811E-1
7.125444942E0,6.264984608E-3,-7.602138519E-1,5.547112226E-2,7.622607140E-1
7.135444942E0,7.312715054E-3,-8.366298676E-1,6.585264206E-2,8.392494156E-1
7.145444908E0,-2.268624306E-2,-8.914804459E-1,9.078562260E-2,8.963783131E-1
7.155444908E0,-4.312288761E-2,-9.439392090E-1,6.081283092E-2,9.468785635E-1
7.165444941E0,-3.958711028E-2,-9.987955093E-1,9.565025568E-2,1.004145697E0
7.175444941E0,-4.092112184E-2,-1.020106316E0,8.998781443E-2,1.024884989E0
7.185444941E0,-6.857967377E-2,-1.029460907E0,1.013027430E-1,1.036703997E0
7.195444941E0,-7.720679045E-2,-1.050791740E0,1.364114285E-1,1.062418114E0
7.205444907E0,-8.330291510E-2,-1.050589561E0,9.247159958E-2,1.057936103E0
7.215444873E0,-8.948349953E-2,-1.012094498E0,1.441121697E-1,1.026211911E0
7.225444906E0,-9.555435181E-2,-9.879903793E-1,1.333069801E-1,1.001512044E0
7.235444906E0,-9.431678057E-2,-9.734678268E-1,1.128054857E-1,9.845102044E-1
7.245444906E0,-1.048291922E-1,-9.302597046E-1,1.136127710E-1,9.430165106E-1
7.255444872E0,-1.246695518E-1,-8.559465408E-1,1.261886358E-1,8.741341715E-1
7.265444872E0,-1.180011779E-1,-7.816677094E-1,1.409214735E-1,8.029866422E-1
7.275444905E0,-1.036806703E-1,-6.810760498E-1,1.387516856E-1,7.027562147E-1
7.285444905E0,-1.323601753E-1,-6.259918213E-1,1.244854927E-1,6.518294364E-1
7.295444905E0,-1.296648830E-1,-5.158491135E-1,1.052927971E-1,5.422175420E-1
7.305444871E0,-1.458501369E-1,-4.129123688E-1,1.028477550E-1,4.498294648E-1
7.315444904E0,-1.424939632E-1,-3.147773743E-1,1.171497703E-1,3.648470825E-1
7.325444904E0,-1.626944542E-1,-2.094583511E-1,8.608382940E-2,2.788417328E-1
7.335444904E0,-1.320604533E-1,-8.023262024E-2,7.889413834E-2,1.734979013E-1
7.345444904E0,-1.393933445E-1,3.703498840E-2,7.187032700E-2,1.611441552E-1
7.355444904E0,-1.508662105E-1,1.495141983E-1,6.248795986E-2,2.214042775E-1
7.365444870E0,-1.405002922E-1,2.571725845E-1,5.068498850E-2,2.974004681E-1
7.375444903E0,-1.252634972E-1,3.911914825E-1,1.754283905E-2,4.111319386E-1
7.385444936E0,-1.434845030E-1,4.964628220E-1,1.065230370E-2,5.168912920E-1
7.395444936E0,-1.449409723E-1,5.849781036E-1,-1.054418087E-2,6.027590289E-1
7.405444936E0,-1.295476705E-1,6.926584244E-1,-1.246494055E-2,7.047791615E-1
7.415444902E0,-1.619062722E-1,7.692041397E-1,-2.160352468E-2,7.863557476E-1
7.425444935E0,-1.461756378E-1,8.528995514E-1,-3.084856272E-2,8.658848628E-1
7.435444935E0,-1.396794766E-1,9.390144348E-1,-6.155902147E-2,9.513400959E-1
7.445444935E0,-1.375197470E-1,9.987621307E-1,-4.930353165E-2,1.009390070E0
7.455444901E0,-1.513838172E-1,1.060876846E0,-7.080399990E-2,1.073959939E0
7.465444867E0,-1.217516959E-1,1.118201256E0,-8.994525671E-2,1.128400493E0
7.475444900E0,-1.372078359E-1,1.144374847E0,-8.281439543E-2,1.155542299E0
7.485444900E0,-1.356411576E-1,1.180136681E0,-1.235859394E-1,1.194317626E0
7.495444900E0,-1.481784284E-1,1.187157631E0,-1.258322597E-1,1.202968763E0
7.505444900E0,-1.483947784E-1,1.196581841E0,-1.447409391E-1,1.214404813E0
7.515444900E0,-1.385731995E-1,1.179679871E0,-1.419204473E-1,1.196239333E0
7.525444866E0,-1.571164876E-1,1.141249657E0,-1.578257084E-1,1.162774838E0
7.535444899E0,-1.533365548E-1,1.105226517E0,-1.328296065E-1,1.123690997E0
7.545444899E0,-1.488567591E-1,1.064419746E0,-1.527658701E-1,1.085580555E0
7.555444899E0,-1.624273211E-1,1.009263992E0,-1.675389409E-1,1.035888864E0
7.565444865E0,-1.458488852E-1,9.349946976E-1,-1.744096279E-1,9.622399389E-1
7.575444865E0,-1.450873315E-1,8.655443192E-1,-1.495562196E-1,8.902720736E-1
7.585444898E0,-1.412654370E-1,7.960653305E-1,-1.340840459E-1,8.195452797E-1
7.595444898E0,-1.248138547E-1,7.074470520E-1,-1.518961787E-1,7.342562760E-1
7.605444898E0,-1.414687783E-1,5.948839188E-1,-1.336516142E-1,6.259097746E-1
7.615444864E0,-1.386689842E-1,4.895181656E-1,-1.224108934E-1,5.232987182E-1
7.625444897E0,-1.211052835E-1,3.817186356E-1,-1.207081676E-1,4.182655474E-1
7.635444930E0,-1.270766705E-1,2.571697235E-1,-1.188395023E-1,3.104956911E-1
7.645444930E0,-1.254089773E-1,1.397924423E-1,-1.121395826E-1,2.187341411E-1
7.655444930E0,-1.112410128E-1,5.111885071E-2,-8.385956287E-2,1.483917994E-1
7.665444930E0,-9.852577746E-2,-6.633377075E-2,-7.026791573E-2,1.380039055E-1
7.675444896E0,-9.965339303E-2,-1.814279556E-1,-6.155484915E-2,2.159534702E-1
7.685444896E0,-8.130341768E-2,-2.822055817E-1,-6.769198179E-2,3.013842074E-1
7.695444929E0,-6.767046452E-2,-3.973684311E-1,-5.474907160E-2,4.067903915E-1
7.705444929E0,-6.380474567E-2,-4.910182953E-1,-3.733390570E-2,4.965519433E-1
7.715444929E0,-2.895766497E-2,-5.846958160E-1,-4.157185555E-2,5.868866695E-1
7.725444895E0,-3.512638807E-2,-6.711740494E-1,-2.681219578E-2,6.726272084E-1
7.735444928E0,-4.169979692E-2,-7.600641251E-1,-2.239942551E-3,7.612104601E-1
7.745444961E0,-2.464848757E-2,-8.225860596E-1,1.287680864E-2,8.230560039E-1
7.755444961E0,-4.615870118E-2,-8.922786713E-1,9.069681168E-3,8.935178297E-1
7.765444961E0,-2.252411842E-2,-9.380102158E-1,2.216100693E-2,9.385422798E-1
7.775444927E0,-1.554566622E-2,-9.861459732E-1,3.783655167E-2,9.869939984E-1
7.785444960E0,5.714148283E-3,-1.010334015E0,3.438949585E-2,1.010935265E0
7.795444960E0,3.172406554E-2,-1.036922455E0,3.837484121E-2,1.038117152E0
7.805444960E0,1.937815547E-2,-1.034765244E0,5.922240019E-2,1.036639723E0
7.815444960E0,2.586185932E-2,-1.039772034E0,7.074826956E-2,1.042497019E0
7.825444960E0,3.426700830E-2,-9.992694855E-1,7.768672705E-2,1.002870361E0
7.835444926E0,5.178657174E-2,-9.706897736E-1,9.452658892E-2,9.766553955E-1
7.845444959E0,4.967287183E-2,-9.349069595E-1,1.044538021E-1,9.420345078E-1
7.855444992E0,5.426621437E-2,-8.871231079E-1,1.169335842E-1,8.964405690E-1
7.865444992E0,5.631896853E-2,-8.537197113E-1,1.245191097E-1,8.645890240E-1
7.875444958E0,6.324988604E-2,-7.748546600E-1,1.317930222E-1,7.885237428E-1
7.885444924E0,6.587269902E-2,-6.984109879E-1,1.460627913E-1,7.165552731E-1
7.895444957E0,9.740602970E-2,-5.980672836E-1,1.144245267E-1,6.166566165E-1
7.905444957E0,1.079637408E-1,-4.929895401E-1,1.184735298E-1,5.183925474E-1
7.915444957E0,1.306353211E-1,-4.142942429E-1,1.100865006E-1,4.481342928E-1
7.925444923E0,1.484319568E-1,-2.901363373E-1,1.061636209E-1,3.427562609E-1
7.935444923E0,1.516228020E-1,-1.707544327E-1,9.266138077E-2,2.464400168E-1
7.945444956E0,1.710768938E-1,-6.572914124E-2,8.628225327E-2,2.025641894E-1
7.955444956E0,1.898095310E-1,6.327438354E-2,6.331914663E-2,2.098585714E-1
7.965444956E0,1.934912205E-1,1.492271423E-1,7.403135300E-2,2.553198653E-1
7.975444956E0,2.127766609E-1,2.831487656E-1,7.531499863E-2,3.621042390E-1
7.985444922E0,2.074849904E-1,3.787860870E-1,5.041474104E-2,4.348224547E-1
7.995444888E0,2.086594999E-1,4.696798325E-1,5.906587839E-2,5.173265022E-1
8.005444921E0,2.285512984E-1,5.941038132E-1,4.139691591E-2,6.378939892E-1
8.015444921E0,2.477627993E-1,6.970214844E-1,1.880449057E-2,7.399857858E-1
8.025444921E0,2.568909526E-1,7.903604507E-1,1.272344589E-2,8.311585226E-1
8.035444887E0,2.390424609E-1,8.717679977E-1,-5.438208580E-3,9.039636686E-1
8.045444887E0,2.466239035E-1,9.603948593E-1,-2.599829435E-2,9.918959355E-1
8.055444920E0,2.485055327E-1,1.034703255E0,-3.458052874E-2,1.064688517E0
8.065444920E0,2.658589482E-1,1.068399429E0,-4.791212082E-2,1.102022637E0
8.075444920E0,2.551097274E-1,1.118930817E0,-2.760642767E-2,1.147976158E0
8.085444886E0,2.576981783E-1,1.152798653E0,-5.012470484E-2,1.182313652E0
8.095444919E0,2.330152988E-1,1.169953346E0,-4.364275932E-2,1.193730142E0
8.105444952E0,2.218035758E-1,1.182368279E0,-4.918426275E-2,1.203997784E0
8.115444952E0,2.149181366E-1,1.180440903E0,-5.235254765E-2,1.200987643E0
8.125444952E0,2.004635036E-1,1.161765099E0,-5.784440041E-2,1.180351530E0
8.135444952E0,1.953974664E-1,1.131112099E0,-6.344193220E-2,1.149617166E0
8.145444918E0,1.948862672E-1,1.117203712E0,-5.738323927E-2,1.135525265E0
8.155444918E0,1.704907119E-1,1.072156906E0,-6.102901697E-2,1.087341738E0
8.165444951E0,1.866269112E-1,1.007948875E0,-1.007900834E-1,1.030023874E0
8.175444951E0,1.617158949E-1,9.485292435E-1,-5.443316698E-2,9.637544947E-1
8.185444951E0,1.506609619E-1,8.771362305E-1,-5.859392881E-2,8.919080338E-1
8.195444917E0,1.464672387E-1,7.937717438E-1,-7.728165388E-2,8.108629275E-1
8.205444950E0,1.156299710E-1,6.912527084E-1,-5.529773235E-2,7.030351601E-1
8.215444983E0,1.109206378E-1,5.743637085E-1,-6.700313091E-2,5.888008807E-1
8.225444983E0,8.218067884E-2,5.101337433E-1,-3.329861164E-2,5.177826741E-1
8.235444949E0,7.501140237E-2,3.740663528E-1,-2.848374844E-2,3.825750524E-1
8.245444915E0,3.933471441E-2,2.570943832E-1,-3.357803822E-2,2.622445925E-1
8.255444948E0,3.748261929E-2,1.448707581E-1,-2.227586508E-2,1.512901102E-1
8.265444948E0,2.649462223E-2,4.458522797E-2,-2.328771353E-2,5.685178239E-2
8.275444948E0,3.246530890E-2,-5.574798584E-2,-2.716493607E-2,6.999834254E-2
8.285444948E0,1.237007976E-2,-1.729040146E-1,-2.726435661E-3,1.733673862E-1
8.295444948E0,-5.821883678E-4,-2.733068466E-1,2.334594727E-3,2.733174376E-1
8.305444914E0,-8.812397718E-3,-3.617496490E-1,-2.382576466E-3,3.618648140E-1
8.315444947E0,-3.161919117E-2,-4.693794250E-1,1.420730352E-2,4.706576945E-1
8.325444947E0,-3.059345484E-2,-5.722208023E-1,3.078728914E-2,5.738644990E-1
8.335444947E0,-4.885870218E-2,-6.654758453E-1,3.061902523E-2,6.679691596E-1
8.345444913E0,-7.187604904E-2,-7.515392303E-1,5.460506678E-2,7.569406149E-1
8.355444879E0,-9.728124738E-2,-8.112878799E-1,4.997152090E-2,8.186261773E-1
8.365444912E0,-8.896005154E-2,-8.806180954E-1,5.015629530E-2,8.865200362E-1
8.375444912E0,-1.067243814E-1,-9.284105301E-1,5.037152767E-2,9.358811339E-1
8.385444912E0,-1.001517177E-1,-9.666423798E-1,6.976485252E-2,9.743177057E-1
8.395444878E0,-1.030021012E-1,-1.000089645E0,6.529963017E-2,1.007498275E0
8.405444878E0,-1.321739852E-1,-1.012002945E0,6.800723076E-2,1.022861137E0
8.415444911E0,-1.228876114E-1,-1.026307106E0,5.173665285E-2,1.034932037E0
8.425444911E0,-1.278695166E-1,-1.004698753E0,8.566808701E-2,1.016419805E0
8.435444911E0,-1.402002126E-1,-1.004640579E0,9.580171108E-2,1.018889965E0
8.445444911E0,-1.478223056E-1,-9.782581329E-1,9.394001961E-2,9.938134312E-1
8.455444877E0,-1.527933627E-1,-9.327144623E-1,9.929442406E-2,9.503480744E-1
8.465444843E0,-1.646826416E-1,-8.776321411E-1,1.044116020E-1,8.990329973E-1
8.475444876E0,-1.688490659E-1,-8.297634125E-1,1.021336913E-1,8.529059846E-1
8.485444876E0,-1.772759110E-1,-7.412233353E-1,9.008985758E-2,7.674340127E-1
8.495444876E0,-1.776489168E-1,-6.527147293E-1,7.784324884E-2,6.809223354E-1
8.505444842E0,-1.702303290E-1,-5.833950043E-1,7.492470741E-2,6.123249201E-1
8.515444842E0,-1.623207927E-1,-5.069046021E-1,6.230109930E-2,5.358934057E-1
8.525444875E0,-1.659249514E-1,-3.849611282E-1,5.425798893E-2,4.226938480E-1
8.535444875E0,-1.715201139E-1,-2.821998596E-1,4.354172945E-2,3.330942696E-1
8.545444875E0,-1.743492335E-1,-1.698713303E-1,3.525829315E-2,2.459615240E-1
8.555444841E0,-1.649810225E-1,-7.668590546E-2,-4.203319550E-3,1.819811357E-1
8.565444874E0,-1.745103896E-1,4.281330109E-2,1.765012741E-3,1.796941014E-1
8.575444874E0,-1.550131440E-1,1.407670975E-1,-6.454110146E-3,2.094901098E-1
8.585444874E0,-1.805777401E-1,2.554836273E-1,-2.654761076E-2,3.139824512E-1
8.595444874E0,-1.768465936E-1,3.653945923E-1,-4.427301884E-2,4.083479227E-1
8.605444874E0,-1.584741324E-1,4.825019836E-1,-5.222094059E-2,5.105381881E-1
8.615444840E0,-1.539692581E-1,5.684633255E-1,-7.450878620E-2,5.936401638E-1
8.625444873E0,-1.443425566E-1,6.735763550E-1,-8.980953693E-2,6.946982313E-1
8.635444906E0,-1.320749968E-1,7.643232346E-1,-1.169508100E-1,7.844178119E-1
8.645444906E0,-1.337224543E-1,8.646421432E-1,-1.270878315E-1,8.841035276E-1
8.655444906E0,-1.257246733E-1,9.338579178E-1,-1.418187022E-1,9.528955076E-1
8.665444872E0,-1.367160529E-1,9.911308289E-1,-1.465364695E-1,1.011189664E0
8.675444905E0,-1.309039593E-1,1.029260635E0,-1.797447205E-1,1.053005920E0
8.685444905E0,-1.344039291E-1,1.088960648E0,-1.696006060E-1,1.110254058E0
8.695444905E0,-1.353176981E-1,1.107962608E0,-1.832898259E-1,1.131144191E0
8.705444871E0,-1.333278120E-1,1.148525238E0,-1.894601583E-1,1.171657663E0
8.715444837E0,-1.307749748E-1,1.165152550E0,-2.050188780E-1,1.190258501E0
8.725444870E0,-1.228570789E-1,1.165034294E0,-1.963600516E-1,1.187836705E0
8.735444870E0,-1.213604063E-1,1.126605988E0,-2.065275311E-1,1.151791223E0
8.745444870E0,-1.217846125E-1,1.119322777E0,-2.234049439E-1,1.147878364E0
8.755444870E0,-1.072071195E-1,1.078549385E0,-2.135502100E-1,1.104701695E0
8.765444870E0,-1.016099602E-1,1.044958115E0,-2.202168703E-1,1.072733665E0
8.775444836E0,-1.005079895E-1,9.754695892E-1,-2.169089317E-1,1.004336726E0
8.785444869E0,-8.720329404E-2,9.131994247E-1,-2.083800435E-1,9.407230445E-1
8.795444869E0,-9.280693531E-2,8.557453156E-1,-2.112290859E-1,8.863018104E-1
8.805444869E0,-7.891166210E-2,7.528142929E-1,-1.872543097E-1,7.797567483E-1
8.815444835E0,-9.585201740E-2,6.618614197E-1,-1.773569584E-1,6.918841224E-1
8.825444835E0,-9.331431985E-2,5.709352493E-1,-1.910335422E-1,6.092359440E-1
8.835444868E0,-9.024892747E-2,4.680433273E-1,-1.685242057E-1,5.055787111E-1
8.845444868E0,-9.392815828E-2,3.675394058E-1,-1.434171200E-1,4.055566348E-1
8.855444868E0,-6.590691209E-2,2.550210953E-1,-1.231839657E-1,2.907813087E-1
8.865444834E0,-6.144940853E-2,1.496820450E-1,-1.196446419E-1,2.012351478E-1
8.875444867E0,-5.183628201E-2,2.995491028E-2,-8.745300770E-2,1.059826653E-1
8.885444900E0,-4.923588037E-2,-8.742523193E-2,-7.226735353E-2,1.236523897E-1
8.895444900E0,-3.198295832E-2,-1.593284607E-1,-7.873773575E-2,1.805771277E-1
8.905444900E0,-2.459919453E-2,-2.863550186E-1,-6.651329994E-2,2.950056544E-1
8.915444900E0,-1.254236698E-2,-3.774576187E-1,-4.485213757E-2,3.803199694E-1
8.925444866E0,-1.031580567E-2,-4.733638763E-1,-2.325052023E-2,4.740467930E-1
8.935444866E0,-6.060242653E-3,-5.693159103E-1,-4.525423050E-3,5.693661491E-1
8.945444899E0,-1.384764910E-2,-6.628522873E-1,1.193457842E-2,6.631043254E-1
8.955444899E0,-2.685993910E-3,-7.348461151E-1,4.462361336E-3,7.348645726E-1
8.965444899E0,1.318454742E-2,-7.996673584E-1,2.576112747E-2,8.001908223E-1
8.975444865E0,1.453587413E-2,-8.644905090E-1,3.507572412E-2,8.653238921E-1
8.985444898E0,2.774047852E-2,-9.005804062E-1,4.672902822E-2,9.022184903E-1
8.995444931E0,3.355944157E-2,-9.630231857E-1,6.067085266E-2,9.655158439E-1
9.005444931E0,4.613262415E-2,-9.727811813E-1,8.162009716E-2,9.772887424E-1
9.015444931E0,3.898289800E-2,-9.921064377E-1,7.875055075E-2,9.959902104E-1
9.025444897E0,5.292853713E-2,-9.946622849E-1,1.021665335E-1,1.001295407E0
9.035444930E0,4.985034466E-2,-1.009180069E0,8.964037895E-2,1.014379054E0
9.045444930E0,6.070557237E-2,-9.757614136E-1,1.062476635E-1,9.834043262E-1
9.055444930E0,5.945083499E-2,-9.495124817E-1,1.206366420E-1,9.589898613E-1
9.065444930E0,8.449307084E-2,-9.112997055E-1,1.208171844E-1,9.231484303E-1
9.075444930E0,7.838809490E-2,-8.491230011E-1,1.330614686E-1,8.630526744E-1
9.085444896E0,8.193850517E-2,-8.061208725E-1,1.475656033E-1,8.236020805E-1
9.095444929E0,1.023860872E-1,-7.416038513E-1,1.332407594E-1,7.604027111E-1
9.105444962E0,9.903794527E-2,-6.459636688E-1,1.259824634E-1,6.655442563E-1
9.115444962E0,1.289415658E-1,-5.503177643E-1,1.403252482E-1,5.823802404E-1
9.125444928E0,1.298855841E-1,-4.666481018E-1,1.185417175E-1,4.986811152E-1
9.135444894E0,1.352506876E-1,-3.566370010E-1,1.181243062E-1,3.992944411E-1
9.145444927E0,1.497303247E-1,-2.609882355E-1,1.079105735E-1,3.196540647E-1
9.155444927E0,1.470140517E-1,-1.509552002E-1,1.121051908E-1,2.386800738E-1
9.165444927E0,1.677859128E-1,-5.288982391E-2,1.065420508E-1,2.056712294E-1
9.175444893E0,1.616993546E-1,5.718612671E-2,6.746906042E-2,1.843068325E-1
9.185444893E0,1.672624052E-1,1.792297363E-1,8.820849657E-2,2.605393433E-1
9.195444926E0,1.841893792E-1,2.725858688E-1,7.791578770E-2,3.380823173E-1
9.205444926E0,2.055079341E-1,3.994855881E-1,3.418225050E-2,4.505448616E-1
9.215444926E0,2.066443563E-1,5.096845627E-1,7.198554277E-2,5.546730224E-1
9.225444926E0,2.189461291E-1,5.983772278E-1,2.592962980E-2,6.377029558E-1
9.235444892E0,2.064063549E-1,7.038555145E-1,2.989506721E-2,7.341048179E-1
9.245444858E0,2.216274738E-1,7.854290009E-1,1.679378748E-2,8.162716973E-1
9.255444891E0,2.217030823E-1,8.526601791E-1,1.080220938E-2,8.810779339E-1
9.265444891E0,2.136895657E-1,9.271078110E-1,6.986260414E-3,9.514415019E-1
9.275444891E0,2.241986990E-1,9.920015335E-1,-2.326422930E-2,1.017287237E0
9.285444857E0,2.029799819E-1,1.052123070E0,-3.209316730E-2,1.072004570E0
9.295444857E0,1.882139444E-1,1.088352203E0,-2.178597450E-2,1.104721520E0
9.305444890E0,1.827408373E-1,1.088670731E0,-2.106821537E-2,1.104102370E0
9.315444890E0,1.863341928E-1,1.144083977E0,-4.890167713E-2,1.160189619E0
9.325444890E0,1.821554303E-1,1.156441689E0,-6.941264868E-2,1.172755770E0
9.335444856E0,1.704231203E-1,1.144857407E0,-5.636978149E-2,1.158844284E0
9.345444889E0,1.751112938E-1,1.147658348E0,-6.725281477E-2,1.162887179E0
9.355444922E0,1.579432189E-1,1.109773636E0,-7.563692331E-2,1.123505464E0
9.365444922E0,1.309913397E-1,1.088637352E0,-8.649122715E-2,1.099895789E0
9.375444922E0,1.253319979E-1,1.033990860E0,-7.835036516E-2,1.044501789E0
9.385444922E0,1.315862536E-1,9.937076569E-1,-7.737654448E-2,1.005364103E0
9.395444888E0,1.089268923E-1,9.222879410E-1,-6.932866573E-2,9.312822224E-1
9.405444888E0,8.860847354E-2,8.340749741E-1,-5.202633142E-2,8.403804276E-1
9.415444921E0,9.467011690E-2,7.602214813E-1,-5.876839161E-2,7.683442299E-1
9.425444921E0,7.686683536E-2,6.576108932E-1,-6.313729286E-2,6.650916591E-1
9.435444921E0,6.392967701E-2,5.717611313E-1,-6.756281853E-2,5.792775926E-1
9.445444887E0,4.869848490E-2,4.571561813E-1,-4.093706608E-2,4.615616535E-1
9.455444920E0,4.314365983E-2,3.808460236E-1,-2.172261477E-2,3.838970448E-1
9.465444953E0,3.768038750E-2,2.781782150E-1,-3.138214350E-2,2.824672899E-1
9.475444953E0,5.908131599E-3,1.347894669E-1,-2.206283808E-2,1.367109184E-1
9.485444919E0,-1.850306988E-3,2.966403961E-2,-1.072096825E-2,3.159617132E-2
9.495444885E0,1.668035984E-4,-6.110954285E-2,-9.174883366E-3,6.179468048E-2
9.505444918E0,-2.402019501E-2,-1.926269531E-1,2.558130026E-2,1.957971291E-1
9.515444918E0,-1.679998636E-2,-2.858543396E-1,7.316827774E-3,2.864410567E-1
9.525444918E0,-3.822591901E-2,-3.791255951E-1,3.432905674E-2,3.825910635E-1
9.535444918E0,-5.490049720E-2,-4.723768234E-1,3.021103144E-2,4.765150935E-1
9.545444918E0,-7.402634621E-2,-5.800113678E-1,2.860414982E-2,5.854154799E-1
9.555444884E0,-5.967918038E-2,-6.469211578E-1,6.303417683E-2,6.527188495E-1
9.565444917E0,-9.561485052E-2,-7.306003571E-1,4.974532127E-2,7.385077375E-1
9.575444917E0,-1.147911251E-1,-8.070774078E-1,7.495713234E-2,8.186388192E-1
9.585444917E0,-9.536555409E-2,-8.740034103E-1,1.027654409E-1,8.851764152E-1
9.595444883E0,-1.305257976E-1,-9.193820953E-1,1.184995770E-1,9.361317059E-1
9.605444849E0,-1.241431832E-1,-9.600143433E-1,1.220827699E-1,9.756758027E-1
9.615444882E0,-1.383656114E-1,-9.767675400E-1,1.275845170E-1,9.947349791E-1
9.625444882E0,-1.159266233E-1,-9.791889191E-1,1.206683517E-1,9.933834971E-1
9.635444882E0,-1.263501942E-1,-9.553356171E-1,1.204679608E-1,9.711555192E-1
9.645444848E0,-1.246426553E-1,-9.841804504E-1,1.056727767E-1,9.976540915E-1
9.655444848E0,-1.421556622E-1,-9.675436020E-1,1.170269251E-1,9.849081963E-1
9.665444881E0,-1.335110813E-1,-9.341316223E-1,1.116738319E-1,9.502095250E-1
9.675444881E0,-1.343109459E-1,-9.007282257E-1,1.303358674E-1,9.199664152E-1
9.685444881E0,-1.400766522E-1,-8.529415131E-1,1.420373321E-1,8.759596434E-1
9.695444881E0,-1.503871232E-1,-7.788133621E-1,1.227539778E-1,8.026425599E-1
9.705444847E0,-1.483517438E-1,-7.190532684E-1,1.228826642E-1,7.444098279E-1
9.715444813E0,-1.507235169E-1,-6.401424408E-1,1.157174706E-1,6.677502947E-1
9.725444846E0,-1.501082182E-1,-5.564527512E-1,1.182515025E-1,5.883498613E-1
9.735444846E0,-1.393727660E-1,-4.368619919E-1,1.016085744E-1,4.696780496E-1
9.745444846E0,-1.162248701E-1,-3.579883575E-1,1.066210866E-1,3.911929711E-1
9.755444812E0,-1.264726371E-1,-2.575702667E-1,8.764988184E-2,3.000337848E-1
9.765444812E0,-1.272469759E-1,-1.451883316E-1,8.525162935E-2,2.110433245E-1
9.775444845E0,-1.304136366E-1,-4.477214813E-2,4.933637381E-2,1.464456883E-1
9.785444845E0,-1.361143291E-1,5.802154541E-2,5.396777391E-2,1.574996220E-1
9.795444845E0,-1.296399385E-1,1.512403488E-1,6.333565712E-2,2.090252669E-1
9.805444811E0,-1.323404461E-1,2.540130615E-1,3.900080919E-2,2.890634744E-1
9.815444844E0,-1.320964694E-1,3.711214066E-1,2.657240629E-2,3.948248579E-1
9.825444844E0,-1.119437069E-1,4.714584351E-1,7.017314434E-3,4.846170573E-1
9.835444844E0,-1.054642051E-1,5.622072220E-1,1.749455929E-3,5.720163631E-1
9.845444844E0,-1.077578664E-1,6.864471436E-1,-3.704047203E-2,6.958400931E-1
9.855444844E0,-8.349815011E-2,7.723875046E-1,-4.233223200E-2,7.780401122E-1
9.865444810E0,-7.358385623E-2,8.535127640E-1,-4.293537140E-2,8.577540838E-1
9.875444843E0,-7.077807188E-2,9.107046127E-1,-8.172124624E-2,9.170991163E-1
9.885444876E0,-5.614137650E-2,9.679136276E-1,-1.084089279E-1,9.755824621E-1
9.895444876E0,-6.075805426E-2,1.032306671E0,-9.665668011E-2,1.038600558E0
9.905444876E0,-6.049963832E-2,1.091925621E0,-1.110134721E-1,1.099220523E0
9.915444842E0,-5.277597904E-2,1.101287842E0,-1.130716205E-1,1.108334519E0
9.925444875E0,-6.163124740E-2,1.115469933E0,-1.290183663E-1,1.124596514E0
9.935444875E0,-5.335317552E-2,1.122460365E0,-1.352816820E-1,1.131841405E0
9.945444875E0,-4.697424173E-2,1.103130341E0,-1.387414932E-1,1.112812801E0
9.955444841E0,-2.097812295E-2,1.105338097E0,-1.443700194E-1,1.114923805E0
9.965444807E0,-4.739019275E-2,1.102773666E0,-1.617799401E-1,1.115584304E0
9.975444840E0,-3.285270929E-2,1.054734230E0,-1.669220924E-1,1.068366314E0
9.985444840E0,-1.820391417E-2,1.018699646E0,-1.763618588E-1,1.034013470E0
9.995444840E0,-3.703415394E-2,9.419813156E-1,-1.615923047E-1,9.564582586E-1
1.000544484E1,-3.430539370E-2,8.772449493E-1,-1.511150599E-1,8.908262022E-1
1.001544484E1,-2.665084600E-2,8.221349716E-1,-1.426334381E-1,8.348415879E-1
1.002544481E1,-3.552630544E-2,7.286891937E-1,-1.388678551E-1,7.426535805E-1
1.003544484E1,-4.647520185E-2,6.280870438E-1,-1.394664645E-1,6.450613720E-1
1.004544484E1,-3.493994474E-2,5.274724960E-1,-1.351117492E-1,5.456218641E-1
1.005544484E1,-2.279812098E-2,4.507713318E-1,-1.450758576E-1,4.740902365E-1
1.006544480E1,-2.926817536E-2,3.501348495E-1,-1.212611198E-1,3.716924779E-1
1.007544480E1,-1.689642668E-3,2.470617294E-1,-9.502011538E-2,2.647096057E-1
1.008544484E1,-2.556860447E-3,1.248235703E-1,-1.096798182E-1,1.661840057E-1
1.009544484E1,1.341667771E-2,2.411079407E-2,-1.075457335E-1,1.110289260E-1
1.010544484E1,2.200192213E-2,-8.140468597E-2,-7.935756445E-2,1.157947776E-1
1.011544480E1,1.852875948E-2,-1.893119812E-1,-7.736140490E-2,2.053463614E-1
1.012544484E1,2.199554443E-2,-2.852420807E-1,-6.336289644E-2,2.930216805E-1
1.013544487E1,4.428607225E-2,-3.740005493E-1,-5.905252695E-2,3.812149892E-1
1.014544487E1,2.791801095E-2,-4.603357315E-1,-1.151490211E-2,4.613252584E-1
1.015544487E1,3.493598104E-2,-5.682172775E-1,-4.557251930E-3,5.693084979E-1
1.016544487E1,3.444805741E-2,-6.497144699E-1,-7.101774216E-3,6.506658100E-1
1.017544484E1,4.311740398E-2,-7.120647430E-1,3.833442926E-2,7.143982344E-1
1.018544484E1,7.058167458E-2,-7.887544632E-1,-9.489178658E-3,7.919630171E-1
1.019544487E1,5.934247375E-2,-8.247251511E-1,3.371644020E-2,8.275445017E-1
1.020544487E1,3.790178895E-2,-8.869953156E-1,5.076968670E-2,8.892551920E-1
1.021544487E1,5.908390880E-2,-9.181318283E-1,5.338132381E-2,9.215782811E-1
1.022544484E1,5.342370272E-2,-9.612245560E-1,8.702093363E-2,9.666330130E-1
1.023544487E1,7.370686531E-2,-9.683942795E-1,6.065922976E-2,9.730877271E-1
1.024544490E1,6.269696355E-2,-9.899587631E-1,9.388506413E-2,9.963752642E-1
1.025544490E1,6.827178597E-2,-9.779815674E-1,1.103801131E-1,9.865560056E-1
1.026544490E1,5.241638422E-2,-9.564313889E-1,1.054260731E-1,9.636509409E-1
1.027544487E1,6.551805139E-2,-9.133443832E-1,1.220082045E-1,9.237838380E-1
1.028544490E1,7.888787985E-2,-8.774509430E-1,1.051073670E-1,8.872378562E-1
1.029544490E1,8.761596680E-2,-8.200073242E-1,1.266054511E-1,8.343365686E-1
1.030544490E1,9.629237652E-2,-7.601776123E-1,1.384727359E-1,7.786635490E-1
1.031544490E1,1.074731648E-1,-6.979475021E-1,1.385305524E-1,7.196331780E-1
1.032544490E1,1.112546623E-1,-6.070098877E-1,1.311389804E-1,6.309009715E-1
1.033544487E1,1.147859693E-1,-5.304279327E-1,1.379821301E-1,5.599720339E-1
1.034544490E1,1.372157931E-1,-4.346799850E-1,1.255506277E-1,4.727978674E-1
1.035544493E1,1.546820998E-1,-3.604936600E-1,1.295734048E-1,4.131240711E-1
1.036544493E1,1.427641511E-1,-2.336168289E-1,1.239442229E-1,3.005338517E-1
1.037544490E1,1.567040086E-1,-1.210660934E-1,1.112275124E-1,2.271226646E-1
1.038544486E1,1.606458426E-1,-1.570034027E-2,1.008080840E-1,1.903046432E-1
1.039544490E1,1.569053233E-1,8.013439178E-2,8.568888903E-2,1.959167857E-1
1.040544490E1,1.859931648E-1,1.903514862E-1,7.777535915E-2,2.772654903E-1
1.041544490E1,1.640657187E-1,3.125963211E-1,7.018387318E-2,3.599441569E-1
1.042544486E1,1.795364916E-1,4.013919830E-1,6.017297506E-2,4.438126438E-1
1.043544486E1,1.822681725E-1,5.189428329E-1,5.995661020E-2,5.532794463E-1
1.044544490E1,2.008909583E-1,5.982246399E-1,6.445634365E-2,6.343378573E-1
1.045544490E1,1.804342866E-1,6.751546860E-1,5.208742619E-2,7.007877580E-1
1.046544490E1,1.876390576E-1,7.760486603E-1,3.223991394E-2,7.990615440E-1
1.047544490E1,1.606108248E-1,8.530035019E-1,3.827643394E-2,8.688359435E-1
1.048544486E1,1.665024459E-1,9.251594543E-1,1.745331287E-2,9.401849279E-1
1.049544483E1,1.695959568E-1,9.901123047E-1,2.959537506E-2,1.004968184E0
1.050544486E1,1.482789516E-1,1.038288116E0,-1.741230488E-3,1.048824052E0
1.051544486E1,1.529881358E-1,1.091279984E0,-2.835822105E-2,1.102316452E0
1.052544486E1,1.358406246E-1,1.091592789E0,-2.138698101E-2,1.100220385E0
1.053544483E1,1.183784604E-1,1.118245125E0,-3.837257624E-2,1.125148023E0
1.054544483E1,1.244908869E-1,1.123377800E0,-5.288195610E-2,1.131491124E0
1.055544486E1,1.065013111E-1,1.116547585E0,-3.846430779E-2,1.122274717E0
1.056544486E1,1.002080739E-1,1.112121582E0,-5.269843340E-2,1.117869937E0
1.057544486E1,9.385570884E-2,1.088533401E0,-4.543441534E-2,1.093516413E0
1.058544483E1,8.983945847E-2,1.045771599E0,-5.250263214E-2,1.050935722E0
1.059544486E1,6.432402134E-2,1.005407333E0,-6.669467688E-2,1.009668097E0
1.060544489E1,4.133448005E-2,9.362945557E-1,-4.747033119E-2,9.384079425E-1
1.061544489E1,5.686372519E-2,8.791294098E-1,-5.948317051E-2,8.829723948E-1
1.062544489E1,2.946591377E-2,7.980041504E-1,-5.955857038E-2,8.007659380E-1
1.063544489E1,1.643621922E-2,7.216711044E-1,-6.221061945E-2,7.245339836E-1
1.064544486E1,1.548212767E-2,6.429090500E-1,-6.013375521E-2,6.459007752E-1
1.065544486E1,-6.971746683E-3,5.473728180E-1,-6.047922373E-2,5.507479856E-1
1.066544489E1,-3.139913082E-3,4.470300674E-1,-4.419624805E-2,4.492204900E-1
1.067544489E1,-3.033652902E-2,3.203439713E-1,-4.962784052E-2,3.255817677E-1
1.068544489E1,-4.044741392E-2,2.295475006E-1,-3.852677345E-2,2.362463981E-1
1.069544486E1,-5.990043283E-2,1.123695374E-1,-3.715771437E-2,1.326486732E-1
1.070544489E1,-6.937354803E-2,3.348445892E-2,-2.173811197E-2,8.004026279E-2
1.071544492E1,-8.800923824E-2,-8.373832703E-2,-8.850753307E-3,1.218034042E-1
1.072544492E1,-9.649905562E-2,-1.914281845E-1,3.702878952E-3,2.144073900E-1
1.073544489E1,-1.044242978E-1,-2.991600037E-1,-3.098785877E-3,3.168765442E-1
1.074544486E1,-1.216217875E-1,-3.949594498E-1,1.572370529E-3,4.132641994E-1
1.075544489E1,-1.192988306E-1,-4.644546509E-1,1.318258047E-2,4.797125328E-1
1.076544489E1,-1.238488704E-1,-5.818548203E-1,1.964479685E-2,5.952138209E-1
1.077544489E1,-1.376625746E-1,-6.394367218E-1,2.099746466E-2,6.544243265E-1
1.078544489E1,-1.345899105E-1,-7.281436920E-1,2.961844206E-2,7.410701265E-1
1.079544489E1,-1.480503827E-1,-7.953100204E-1,4.548114538E-2,8.102502570E-1
1.080544485E1,-1.397521347E-1,-8.505134583E-1,3.736370802E-2,8.627281429E-1
1.081544489E1,-1.741348058E-1,-8.984994888E-1,4.180401564E-2,9.161723843E-1
1.082544489E1,-1.460467428E-1,-9.345340729E-1,7.013958693E-2,9.484741146E-1
1.083544489E1,-1.606987715E-1,-9.274559021E-1,5.572438240E-2,9.429229832E-1
1.084544485E1,-1.582949013E-1,-9.443159103E-1,6.053286791E-2,9.594029614E-1
1.085544482E1,-1.697828621E-1,-9.635906219E-1,7.016909122E-2,9.809468937E-1
1.086544485E1,-1.667489856E-1,-9.373683929E-1,9.189885855E-2,9.565093458E-1
1.087544485E1,-1.584834456E-1,-9.398698807E-1,8.992314339E-2,9.573706528E-1
1.088544485E1,-1.598402262E-1,-9.064464569E-1,8.095341921E-2,9.239845958E-1
1.089544482E1,-1.561735570E-1,-8.682212830E-1,8.415389061E-2,8.861603994E-1
1.090544482E1,-1.641743034E-1,-8.180522919E-1,8.233016729E-2,8.384157743E-1
1.091544485E1,-1.671013832E-1,-7.583055496E-1,8.529144526E-2,7.811688739E-1
1.092544485E1,-1.695791483E-1,-6.865968704E-1,9.551107883E-2,7.136488746E-1
1.093544485E1,-1.549219042E-1,-6.053400040E-1,8.157682419E-2,6.301524379E-1
1.094544485E1,-1.659976244E-1,-5.097322464E-1,8.175343275E-2,5.422783401E-1
1.095544482E1,-1.574435234E-1,-4.165649414E-1,6.730836630E-2,4.503834251E-1
1.096544478E1,-1.459283084E-1,-3.401727676E-1,6.939119101E-2,3.766002130E-1
1.097544482E1,-1.386013180E-1,-2.398700714E-1,5.217361450E-2,2.819043500E-1
1.098544482E1,-1.187890917E-1,-1.156663895E-1,4.183495045E-2,1.709962720E-1
1.099544482E1,-1.083113402E-1,-5.831718445E-3,2.175962925E-2,1.106292765E-1
1.100544478E1,-1.096720248E-1,8.484745026E-2,2.085429430E-2,1.402210556E-1
1.101544478E1,-1.110058278E-1,1.730957031E-1,-1.746237278E-3,2.056391636E-1
1.102544482E1,-1.002271324E-1,2.924890518E-1,-1.943314075E-2,3.097950459E-1
1.103544482E1,-8.694098890E-2,3.951368332E-1,-2.507907152E-2,4.053650359E-1
1.104544482E1,-8.794891834E-2,4.881820679E-1,-4.500478506E-2,4.980784821E-1
1.105544478E1,-6.489837170E-2,5.812368393E-1,-4.802739620E-2,5.868174271E-1
1.106544481E1,-7.515779138E-2,6.862802505E-1,-6.285291910E-2,6.932386064E-1
1.107544481E1,-4.936417937E-2,7.673845291E-1,-8.718609810E-2,7.738974437E-1
1.108544481E1,-3.528609872E-2,8.413019180E-1,-9.914922714E-2,8.478588298E-1
1.109544481E1,-3.071278334E-2,9.056768417E-1,-1.252027154E-1,9.148057371E-1
1.110544481E1,-4.303523898E-2,9.724750519E-1,-1.483960152E-1,9.846731111E-1
1.111544478E1,-2.910652757E-2,1.010573387E0,-1.352145672E-1,1.019994480E0
1.112544481E1,-5.653738976E-3,1.051085472E0,-1.553759575E-1,1.062522622E0
1.113544485E1,-1.602327824E-2,1.077263832E0,-1.560007930E-1,1.088618554E0
1.114544485E1,-1.444739103E-2,1.101078987E0,-1.873309016E-1,1.116994418E0
1.115544485E1,-1.050850749E-2,1.096162796E0,-1.372528076E-1,1.104772211E0
1.116544481E1,-3.964066505E-3,1.103223801E0,-1.682842970E-1,1.115991968E0
1.117544485E1,3.700554371E-4,1.071990967E0,-1.871246099E-1,1.088200528E0
1.118544485E1,-1.882055402E-2,1.059924126E0,-1.506984234E-1,1.070748981E0
1.119544484E1,5.488395691E-3,1.007157326E0,-1.977515221E-1,1.026402292E0
1.120544481E1,-1.301854849E-2,9.855136871E-1,-1.679815650E-1,9.998122405E-1
1.121544478E1,-1.565217972E-4,9.231786728E-1,-1.785085797E-1,9.402787881E-1
1.122544481E1,1.777750254E-2,8.417186737E-1,-2.173781991E-1,8.695169042E-1
1.123544481E1,1.434656978E-2,7.794408798E-1,-1.527071595E-1,7.943886868E-1
1.124544481E1,2.539271116E-2,7.100143433E-1,-1.570959687E-1,7.276292331E-1
1.125544481E1,1.731860638E-2,6.094560623E-1,-1.635248065E-1,6.312503373E-1
1.126544481E1,2.605971694E-2,5.113182068E-1,-1.387690902E-1,5.304547840E-1
1.127544478E1,3.728085756E-2,4.155607224E-1,-1.545879841E-1,4.449472116E-1
1.128544481E1,2.451947331E-2,3.102235794E-1,-1.368163228E-1,3.399390827E-1
1.129544481E1,3.572177887E-2,2.072772980E-1,-1.238554120E-1,2.440903251E-1
1.130544481E1,3.972673416E-2,9.953022003E-2,-9.664928913E-2,1.443106482E-1
1.131544478E1,4.841870070E-2,-8.235931396E-3,-9.116929770E-2,1.035569504E-1
1.132544478E1,5.228298903E-2,-9.686851501E-2,-7.156628370E-2,1.312964322E-1
1.133544481E1,4.641500115E-2,-2.070322037E-1,-6.139653921E-2,2.208760302E-1
1.134544481E1,4.982566833E-2,-3.100318909E-1,-5.148053169E-2,3.182021617E-1
1.135544481E1,4.801800847E-2,-3.770875931E-1,-4.137158394E-2,3.823772874E-1
1.136544477E1,5.767711997E-2,-4.728584290E-1,-3.142511845E-2,4.773984521E-1
1.137544481E1,6.212893128E-2,-5.590486526E-1,4.805147648E-3,5.625108795E-1
1.138544484E1,5.653217435E-2,-6.356544495E-1,9.772479534E-3,6.382381744E-1
1.139544484E1,6.462097168E-2,-7.266101837E-1,1.473861933E-2,7.296269293E-1
1.140544484E1,6.753057241E-2,-7.792320251E-1,2.912002802E-2,7.826946424E-1
1.141544484E1,7.490971684E-2,-8.390502930E-1,6.018066406E-2,8.445345299E-1
1.142544481E1,7.259386778E-2,-8.725194931E-1,6.003910303E-2,8.775903540E-1
1.143544481E1,6.526935101E-2,-9.227571487E-1,8.141392469E-2,9.286382885E-1
1.144544484E1,6.502589583E-2,-9.346780777E-1,7.639092207E-2,9.400463015E-1
1.145544484E1,5.996423960E-2,-9.393997192E-1,1.002207398E-1,9.466317865E-1
1.146544484E1,6.676584482E-2,-9.441213608E-1,1.001394391E-1,9.517619078E-1
1.147544480E1,6.149798632E-2,-9.272928238E-1,1.192532182E-1,9.369500058E-1
1.148544484E1,7.520282269E-2,-9.056482315E-1,1.122544408E-1,9.156720173E-1
1.149544487E1,7.917577028E-2,-8.792085648E-1,1.291376352E-1,8.921619986E-1
1.150544487E1,7.326528430E-2,-8.527517319E-1,1.103457808E-1,8.629771199E-1
1.151544487E1,8.401528001E-2,-7.855768204E-1,1.347279549E-1,8.014618705E-1
1.152544484E1,8.751490712E-2,-7.279834747E-1,1.254255772E-1,7.438752408E-1
1.153544487E1,7.174709439E-2,-6.488523483E-1,1.471481323E-1,6.691857652E-1
1.154544487E1,8.213439584E-2,-5.721120834E-1,1.304559708E-1,5.925175570E-1
1.155544487E1,9.228107333E-2,-4.618444443E-1,1.424179077E-1,4.920355146E-1
1.156544487E1,9.724804759E-2,-4.018545151E-1,1.302295923E-1,4.334789277E-1
1.157544487E1,9.717774391E-2,-4.017276764E-1,1.321415305E-1,4.339239841E-1
1.158544484E1,1.134954989E-1,-1.956777573E-1,1.365378499E-1,2.642226285E-1
1.159544487E1,1.412901878E-1,-9.971904755E-2,1.026747823E-1,2.011191600E-1
1.160544490E1,1.274088025E-1,3.429412842E-3,1.117234230E-1,1.694900796E-1
1.161544490E1,1.297431290E-1,1.137971878E-1,1.014278531E-1,2.001766442E-1
1.162544487E1,1.193839312E-1,2.026166916E-1,9.581154585E-2,2.539407392E-1
1.163544483E1,1.251904070E-1,3.249807358E-1,7.566946745E-2,3.563860055E-1
1.164544487E1,1.088794172E-1,4.186229706E-1,7.203644514E-2,4.385078887E-1
1.165544487E1,1.254713535E-1,5.194473267E-1,5.598211288E-2,5.373105086E-1
1.166544487E1,1.224469244E-1,6.154718399E-1,5.396419764E-2,6.298499580E-1
1.167544483E1,1.119041443E-1,6.827497482E-1,4.685389996E-2,6.934443339E-1
1.168544483E1,1.081751585E-1,7.739877701E-1,1.075685024E-2,7.815846998E-1
1.169544487E1,1.088204086E-1,8.412561417E-1,1.025122404E-2,8.483270978E-1
1.170544487E1,8.499750495E-2,9.013605118E-1,2.375721931E-3,9.053623540E-1
1.171544487E1,8.732447028E-2,9.590663910E-1,4.241585732E-3,9.630430398E-1
1.172544487E1,9.651002288E-2,1.021574020E0,-3.464895487E-2,1.026707463E0
1.173544483E1,6.704771519E-2,1.050601006E0,-3.742724657E-2,1.053403374E0
1.174544480E1,6.837126613E-2,1.093968391E0,-4.731595516E-2,1.097123635E0
1.175544483E1,5.736058950E-2,1.082316399E0,-4.008108377E-2,1.084576192E0
1.176544483E1,5.579200387E-2,1.077831268E0,-6.665021181E-2,1.081330311E0
1.177544483E1,3.044030070E-2,1.068544388E0,-6.194287539E-2,1.070771050E0
1.178544480E1,3.868192434E-2,1.059247971E0,-5.017840862E-2,1.061141097E0
1.179544480E1,3.986358643E-3,1.035576820E0,-6.216090918E-2,1.037448418E0
1.180544483E1,3.090828657E-3,1.002308846E0,-6.458961964E-2,1.004392550E0
1.181544483E1,-6.904363632E-3,9.474706650E-1,-6.474804878E-2,9.497055549E-1
1.182544483E1,-9.440571070E-3,8.973979950E-1,-7.691937685E-2,9.007379621E-1
1.183544480E1,-9.272962809E-3,8.305549622E-1,-6.520396471E-2,8.331621031E-1
1.184544483E1,-2.811399102E-2,7.684841156E-1,-6.306165457E-2,7.715795518E-1
1.185544486E1,-2.054083347E-2,6.848402023E-1,-6.115019321E-2,6.878716266E-1
1.186544486E1,-5.593433976E-2,5.868339539E-1,-5.919313431E-2,5.924580719E-1
1.187544486E1,-6.005269289E-2,4.936046600E-1,-5.974787474E-2,5.008210208E-1
1.188544486E1,-9.015983343E-2,4.003496170E-1,-4.135990143E-2,4.124551525E-1
1.189544483E1,-9.110423923E-2,2.902908325E-1,-3.754168749E-2,3.065585232E-1
1.190544483E1,-8.924423158E-2,1.993560791E-1,-2.694869041E-2,2.200763755E-1
1.191544486E1,-9.855292737E-2,8.203411102E-2,-2.390605211E-2,1.304368590E-1
1.192544486E1,-9.780853987E-2,-6.595611572E-3,-2.844727039E-2,1.020747753E-1
1.193544486E1,-1.156403571E-1,-1.120176315E-1,-1.182168722E-2,1.614323210E-1
1.194544483E1,-1.162966937E-1,-2.102813721E-1,-8.702278137E-5,2.402981148E-1
1.195544486E1,-1.309992820E-1,-3.013782501E-1,-5.297541618E-3,3.286605019E-1
1.196544489E1,-1.430418640E-1,-4.092626572E-1,6.257176399E-3,4.335851124E-1
1.197544489E1,-1.428296864E-1,-4.788179398E-1,3.468453884E-3,4.996788658E-1
1.198544486E1,-1.375336200E-1,-5.675392151E-1,1.054960489E-2,5.840612566E-1
1.199544482E1,-1.536355466E-1,-6.514558792E-1,1.288551092E-2,6.694510289E-1
1.200544486E1,-1.478186995E-1,-7.401609421E-1,5.379456282E-2,7.566917755E-1
1.201544486E1,-1.583143324E-1,-7.953252792E-1,3.994107246E-2,8.119119514E-1
1.202544486E1,-1.445341557E-1,-8.265657425E-1,4.773128033E-2,8.404637553E-1
1.203544486E1,-1.638491750E-1,-8.578023911E-1,6.757467985E-2,8.759211332E-1
1.204544486E1,-1.468504965E-1,-8.938341141E-1,8.265000582E-2,9.095798565E-1
1.205544482E1,-1.461887509E-1,-9.059267044E-1,7.872492075E-2,9.210168065E-1
1.206544486E1,-1.596592963E-1,-9.228096008E-1,8.425414562E-2,9.403017661E-1
1.207544486E1,-1.345665902E-1,-9.301328659E-1,8.737206459E-2,9.438692670E-1
1.208544486E1,-1.571590155E-1,-9.278802872E-1,8.578276634E-2,9.449970722E-1
1.209544482E1,-1.389277875E-1,-8.921079636E-1,8.168113232E-2,9.065480441E-1
1.210544479E1,-1.373552829E-1,-8.659353256E-1,8.714956045E-2,8.810820097E-1
1.211544482E1,-1.379504502E-1,-8.110189438E-1,1.142330766E-1,8.305608043E-1
1.212544482E1,-1.454502344E-1,-7.752819061E-1,1.099051833E-1,7.964276201E-1
1.213544482E1,-1.358930320E-1,-7.180156708E-1,9.102874994E-2,7.364099761E-1
1.214544479E1,-1.379205137E-1,-6.320505142E-1,1.079202294E-1,6.558633216E-1
1.215544479E1,-1.275868118E-1,-5.700426102E-1,7.896101475E-2,5.894589161E-1
1.216544482E1,-1.168618053E-1,-4.721717834E-1,9.538727999E-2,4.956829711E-1
1.217544482E1,-1.128870547E-1,-3.814764023E-1,9.007447958E-2,4.078984487E-1
1.218544482E1,-9.670038521E-2,-3.028020859E-1,3.414583206E-2,3.196967400E-1
1.219544482E1,-9.215888381E-2,-2.025699615E-1,6.690001488E-2,2.323864479E-1
1.220544479E1,-8.270058036E-2,-9.756660461E-2,1.841133833E-2,1.292192157E-1
1.221544475E1,-7.544109225E-2,2.660751343E-4,4.423934221E-2,8.745598090E-2
1.222544479E1,-6.561967731E-2,1.124734879E-1,3.916561604E-2,1.359785755E-1
1.223544479E1,-5.101138353E-2,1.959600449E-1,-2.081632614E-2,2.035579030E-1
1.224544479E1,-4.816636443E-2,3.081769943E-1,-1.341187954E-2,3.122065614E-1
1.225544475E1,-3.784811497E-2,4.084358215E-1,-2.734196186E-2,4.110959535E-1
1.226544475E1,-3.453814983E-2,5.039339066E-1,-4.099965096E-2,5.067773055E-1
1.227544479E1,-1.187551022E-2,6.137847900E-1,-3.048491478E-2,6.146561041E-1
1.228544479E1,-8.356690407E-3,6.901473999E-1,-4.837417603E-2,6.918911249E-1
1.229544478E1,4.707664251E-3,7.617197037E-1,-7.333040237E-2,7.652557853E-1
1.230544475E1,1.525449753E-2,8.308916092E-1,-7.923954725E-2,8.348008576E-1
1.231544478E1,8.903592825E-3,9.144487381E-1,-9.932893515E-2,9.198706463E-1
1.232544478E1,3.825306892E-2,9.572954178E-1,-1.098500490E-1,9.643364804E-1
1.233544478E1,4.574662447E-2,9.857940674E-1,-1.250820160E-1,9.947503243E-1
1.234544478E1,5.072659254E-2,1.026262283E0,-1.282928586E-1,1.035493370E0
1.235544478E1,2.927950025E-2,1.057164192E0,-1.387075782E-1,1.066627025E0
1.236544475E1,5.077639222E-2,1.061731339E0,-1.466724873E-1,1.073016540E0
1.237544478E1,5.078512430E-2,1.056745529E0,-1.591108441E-1,1.069862843E0
1.238544482E1,4.839688540E-2,1.061334610E0,-1.402641535E-1,1.071656403E0
1.239544482E1,6.999272108E-2,1.044393539E0,-1.643331647E-1,1.059557566E0
1.240544482E1,5.571758747E-2,1.010710716E0,-1.808381677E-1,1.028271873E0
1.241544478E1,5.809602141E-2,9.842386246E-1,-1.706333160E-1,1.000608088E0
1.242544482E1,7.969665527E-2,9.266662598E-1,-1.624340415E-1,9.441645681E-1
1.243544482E1,7.004752755E-2,8.739385605E-1,-1.680877209E-1,8.927086566E-1
1.244544482E1,7.222482562E-2,8.092451096E-1,-1.733550429E-1,8.307502896E-1
1.245544478E1,8.627530932E-2,7.278356552E-1,-1.494731903E-1,7.480176499E-1
1.246544475E1,9.060499072E-2,6.608209610E-1,-1.660870910E-1,6.873707359E-1
1.247544478E1,8.289533854E-2,5.842323303E-1,-1.440856457E-1,6.074205514E-1
1.248544478E1,7.515347004E-2,4.693641663E-1,-1.457177997E-1,4.971764694E-1
1.249544478E1,7.452481985E-2,3.712711334E-1,-1.303818822E-1,4.004942428E-1
1.250544478E1,7.885095477E-2,2.851562500E-1,-1.123565435E-1,3.164736211E-1
1.251544478E1,7.586720586E-2,1.870870590E-1,-1.157493591E-1,2.327129449E-1
1.252544475E1,8.702906966E-2,1.034030914E-1,-9.743762016E-2,1.666143694E-1
1.253544478E1,9.083372355E-2,-1.142787933E-2,-8.882510662E-2,1.275588544E-1
1.254544478E1,8.489724994E-2,-1.070785522E-1,-5.864542723E-2,1.487032129E-1
1.255544478E1,8.349037170E-2,-2.242965698E-1,-5.277794600E-2,2.450818332E-1
1.256544474E1,8.405241370E-2,-3.127870560E-1,-2.310562134E-2,3.247066682E-1
1.257544474E1,9.876385331E-2,-3.917064667E-1,-1.048552990E-2,4.041017212E-1
1.258544478E1,6.520655751E-2,-4.874010086E-1,1.775145531E-3,4.917466721E-1
1.259544478E1,9.375792742E-2,-5.759344101E-1,1.369088888E-2,5.836766520E-1
1.260544478E1,1.052553058E-1,-6.381349564E-1,1.085525751E-2,6.468483118E-1
1.261544474E1,9.500679374E-2,-7.003431320E-1,1.737338305E-2,7.069714477E-1
1.262544478E1,8.686834574E-2,-7.625665665E-1,6.180948019E-2,7.699833048E-1
1.263544481E1,8.328416944E-2,-8.032493591E-1,6.302589178E-2,8.100111412E-1
1.264544481E1,1.032654047E-1,-8.438968658E-1,7.378429174E-2,8.533872425E-1
1.265544481E1,8.216157556E-2,-8.845367432E-1,7.515496016E-2,8.915178307E-1
1.266544481E1,7.012817264E-2,-8.964128494E-1,7.662916183E-2,9.024112065E-1
1.267544478E1,6.731256843E-2,-9.058475494E-1,9.742641449E-2,9.135549633E-1
1.268544478E1,8.342084289E-2,-9.104928970E-1,1.016858816E-1,9.199436782E-1
1.269544481E1,7.285320759E-2,-8.935470581E-1,1.133784056E-1,9.036529189E-1
1.270544481E1,7.421949506E-2,-8.813734055E-1,1.204495430E-1,8.926565441E-1
1.271544481E1,8.006817102E-2,-8.380422592E-1,1.302059889E-1,8.518681469E-1
1.272544478E1,7.637652755E-2,-7.851457596E-1,1.233066320E-1,7.984308131E-1
1.273544481E1,7.979688048E-2,-7.393970490E-1,1.405983567E-1,7.568642124E-1
1.274544484E1,8.059957623E-2,-6.697139740E-1,1.553637385E-1,6.922073316E-1
1.275544484E1,7.652112842E-2,-6.191844940E-1,1.245718598E-1,6.362099253E-1
1.276544484E1,9.368696809E-2,-5.327320099E-1,1.319942474E-1,5.567792414E-1
1.277544481E1,8.430221677E-2,-4.438743591E-1,1.537858248E-1,4.772644868E-1
1.278544484E1,7.934555411E-2,-3.669843674E-1,1.251567602E-1,3.957745033E-1
1.279544484E1,9.807977080E-2,-2.637567520E-1,1.322863102E-1,3.109452259E-1
1.280544484E1,8.298897743E-2,-1.749086380E-1,1.392790675E-1,2.384928944E-1
1.281544484E1,6.992623210E-2,-6.210613251E-2,1.363639235E-1,1.653540725E-1
1.282544484E1,9.722387791E-2,2.913284302E-2,1.212635040E-1,1.581329896E-1
1.283544481E1,8.342301846E-2,1.299638748E-1,1.154712439E-1,1.928305394E-1
1.284544484E1,7.875093818E-2,2.379426956E-1,9.710669518E-2,2.687901540E-1
1.285544487E1,1.047864258E-1,3.291673660E-1,8.072847128E-2,3.547512311E-1
1.286544487E1,8.253550529E-2,4.299612045E-1,9.035289288E-2,4.470373500E-1
1.287544484E1,8.153891563E-2,5.283298492E-1,7.335919142E-2,5.395948437E-1
1.288544480E1,8.251985908E-2,6.051769257E-1,5.628299713E-2,6.133648297E-1
1.289544484E1,7.826280594E-2,7.011699677E-1,3.436923027E-2,7.063608386E-1
1.290544484E1,6.890371442E-2,7.588891983E-1,1.737201214E-2,7.622088454E-1
1.291544484E1,5.898249149E-2,8.381547928E-1,3.374963999E-2,8.409051250E-1
1.292544480E1,5.359911919E-2,9.030666351E-1,1.189547777E-2,9.047340579E-1
1.293544480E1,3.586953878E-2,9.464254379E-1,4.350841045E-3,9.471149155E-1
1.294544484E1,2.983948588E-2,9.873943329E-1,-1.766997576E-2,9.880031334E-1
1.295544484E1,1.659038663E-2,1.016364098E0,-3.934979439E-3,1.016507110E0
1.296544484E1,2.495950460E-2,1.028577805E0,-2.355855703E-2,1.029150272E0
1.297544484E1,1.199218631E-2,1.057560921E0,-3.819662333E-2,1.058318428E0
1.298544480E1,1.350185275E-2,1.055374146E0,-5.791717768E-2,1.057048384E0
1.299544477E1,-1.687437296E-3,1.055577278E0,-4.658997059E-2,1.056606295E0
1.300544480E1,-2.631926537E-2,1.036626816E0,-7.113593817E-2,1.039397990E0
1.301544480E1,-3.646233678E-2,9.985027313E-1,-5.960530043E-2,1.000944553E0
1.302544480E1,-2.951887250E-2,9.388408661E-1,-8.150565624E-2,9.428344010E-1
1.303544477E1,-5.118587613E-2,9.102725983E-1,-6.047099829E-2,9.137138166E-1
1.304544477E1,-6.057927012E-2,8.410091400E-1,-7.501840591E-2,8.465187433E-1
1.305544480E1,-6.961971521E-2,7.884826660E-1,-5.366867781E-2,7.933675985E-1
1.306544480E1,-7.607933879E-2,7.287845612E-1,-7.290995121E-2,7.363632686E-1
1.307544480E1,-8.944514394E-2,6.451253891E-1,-4.679560661E-2,6.529755204E-1
1.308544477E1,-9.769926965E-2,5.470800400E-1,-5.920660496E-2,5.588802551E-1
1.309544480E1,-9.853988886E-2,4.633464813E-1,-2.659916878E-2,4.744550424E-1
1.310544483E1,-1.205681562E-1,3.412952423E-1,-5.160695314E-2,3.656260389E-1
1.311544483E1,-1.420653462E-1,2.646999359E-1,-3.850966692E-2,3.028722720E-1
1.312544483E1,-1.198026538E-1,1.521625519E-1,-2.315145731E-2,1.950438618E-1
1.313544483E1,-1.592382342E-1,5.156993866E-2,-2.493596077E-2,1.692278817E-1
1.314544480E1,-1.501541287E-1,-3.708457947E-2,-2.457994223E-2,1.566068388E-1
1.315544480E1,-1.447402686E-1,-1.329784393E-1,-1.008212566E-2,1.968112292E-1
1.316544483E1,-1.673368663E-1,-2.456426620E-1,-2.445703745E-2,2.982282530E-1
1.317544483E1,-1.508861482E-1,-3.176097870E-1,2.103191614E-2,3.522569347E-1
1.318544483E1,-1.697288603E-1,-4.039688110E-1,9.127855301E-3,4.382716099E-1
1.319544480E1,-1.616048962E-1,-4.951171875E-1,1.167124510E-2,5.209543068E-1
1.320544483E1,-1.769314110E-1,-5.551309586E-1,3.355526924E-2,5.836103678E-1
1.321544486E1,-1.702250540E-1,-6.462764740E-1,1.495116949E-2,6.684858916E-1
1.322544486E1,-1.533344090E-1,-7.015371323E-1,5.373609066E-2,7.201064896E-1
1.323544483E1,-1.719289422E-1,-7.711429596E-1,6.617683172E-2,7.928432369E-1
1.324544480E1,-1.637265682E-1,-8.144598007E-1,7.615679502E-2,8.342367851E-1
1.325544483E1,-1.454907358E-1,-8.338394165E-1,5.959916115E-2,8.485327258E-1
1.326544483E1,-1.529525667E-1,-8.604612350E-1,7.376265526E-2,8.770569845E-1
1.327544483E1,-1.435117424E-1,-8.870592117E-1,7.841217518E-2,9.020078351E-1
1.328544483E1,-1.361640990E-1,-9.041280746E-1,7.336884737E-2,9.172628985E-1
1.329544483E1,-1.167339385E-1,-8.876686096E-1,8.515441418E-2,8.993517928E-1
1.330544479E1,-1.260149032E-1,-8.568372726E-1,8.975481987E-2,8.706927100E-1
1.331544483E1,-9.946137667E-2,-8.403778076E-1,9.197086096E-2,8.512262121E-1
1.332544483E1,-1.066399813E-1,-8.095417023E-1,9.435296059E-2,8.219685727E-1
1.333544483E1,-1.042082012E-1,-7.571573257E-1,9.448105097E-2,7.701124815E-1
1.334544479E1,-9.964981675E-2,-7.574243546E-1,9.223705530E-2,7.694994563E-1
1.335544476E1,-8.804699779E-2,-6.714954376E-1,8.772212267E-2,6.829008474E-1
1.336544479E1,-8.614391088E-2,-5.855789185E-1,7.833039761E-2,5.970419536E-1
1.337544479E1,-1.010312438E-1,-5.283699036E-1,6.663793325E-2,5.420541314E-1
1.338544479E1,-7.741490006E-2,-4.448680878E-1,6.910771132E-2,4.568112937E-1
1.339544476E1,-8.010551333E-2,-3.565711975E-1,8.589810133E-2,3.754176287E-1
1.340544476E1,-6.816357374E-2,-2.611074448E-1,5.732935667E-2,2.758804553E-1
1.341544479E1,-5.592650175E-2,-1.488704681E-1,5.997616053E-2,1.699627304E-1
1.342544479E1,-3.853914142E-2,-7.495212555E-2,4.372608662E-2,9.494765503E-2
1.343544479E1,-3.295359015E-2,3.250026703E-2,4.200696945E-2,6.250433540E-2
1.344544479E1,-1.502367854E-2,1.255903244E-1,2.866309881E-2,1.296927667E-1
1.345544476E1,-2.297908068E-2,2.258520126E-1,1.529008150E-2,2.275323194E-1
1.346544472E1,-1.130887866E-2,3.093338013E-1,9.203314781E-3,3.096772390E-1
1.347544476E1,1.012122631E-2,4.263114929E-1,-4.155755043E-3,4.264518713E-1
1.348544476E1,3.669598699E-2,5.217294693E-1,-1.040381193E-2,5.231218538E-1
1.349544476E1,4.172486067E-2,5.931921005E-1,-4.299890995E-2,5.962103139E-1
1.350544472E1,5.403146148E-2,7.029542923E-1,-4.688894749E-2,7.065852456E-1
1.351544472E1,6.389340758E-2,7.480478287E-1,-6.757867336E-2,7.538068709E-1
1.352544476E1,6.631758809E-2,8.362493515E-1,-9.081757069E-2,8.437765294E-1
1.353544476E1,8.744162321E-2,8.789882660E-1,-8.756870031E-2,8.876568518E-1
1.354544476E1,9.393003583E-2,9.264917374E-1,-1.107835770E-1,9.378074386E-1
1.355544472E1,1.049349606E-1,9.883890152E-1,-1.123396158E-1,1.000272153E0
1.356544475E1,9.871524572E-2,1.000008583E0,-1.234726906E-1,1.012426477E0
1.357544475E1,1.157956123E-1,1.033253670E0,-1.461849809E-1,1.049948484E0
1.358544475E1,1.325482130E-1,1.032981873E0,-1.471623182E-1,1.051797188E0
1.359544475E1,1.248472035E-1,1.025602341E0,-1.522144675E-1,1.044325730E0
1.360544475E1,1.215082109E-1,1.025447845E0,-1.663761139E-1,1.045939071E0
1.361544472E1,1.274987459E-1,1.008592606E0,-1.656688452E-1,1.030029679E0
1.362544475E1,1.281892657E-1,9.750242233E-1,-1.692298651E-1,9.978694660E-1
1.363544479E1,1.189348996E-1,9.439105988E-1,-1.651387215E-1,9.656000860E-1
1.364544479E1,1.261545122E-1,8.841018677E-1,-1.846829057E-1,9.119533152E-1
1.365544479E1,1.092132628E-1,8.386936188E-1,-1.510421038E-1,8.591555389E-1
1.366544475E1,1.113342047E-1,7.741594315E-1,-1.578678489E-1,7.978974797E-1
1.367544479E1,1.205112934E-1,6.928863525E-1,-1.332454085E-1,7.157994190E-1
1.368544479E1,1.175938845E-1,6.164274216E-1,-1.561554074E-1,6.466804458E-1
1.369544479E1,1.122692227E-1,5.400114059E-1,-1.378021240E-1,5.685122007E-1
1.370544475E1,1.019469798E-1,4.253044128E-1,-1.217098832E-1,4.539717237E-1
1.371544472E1,1.155130267E-1,3.393478394E-1,-1.150807738E-1,3.764887779E-1
1.372544475E1,1.049724817E-1,2.414169312E-1,-8.202630281E-2,2.757347837E-1
1.373544475E1,9.913343191E-2,1.554470062E-1,-7.785689831E-2,2.001322205E-1
1.374544475E1,1.026796699E-1,6.705570221E-2,-7.655119896E-2,1.445671742E-1
1.375544475E1,9.434670210E-2,-5.965900421E-2,-4.449564219E-2,1.201680455E-1
1.376544475E1,1.003128290E-1,-1.385221481E-1,-5.361342430E-2,1.792357343E-1
1.377544472E1,9.191989899E-2,-2.317714691E-1,-3.910052776E-2,2.523809284E-1
1.378544475E1,1.048585474E-1,-3.250503540E-1,-3.938591480E-2,3.438085192E-1
1.379544475E1,1.103424430E-1,-3.919935226E-1,-1.823496819E-2,4.076357327E-1
1.380544475E1,1.011259258E-1,-4.852666855E-1,5.127906799E-3,4.957181703E-1
1.381544472E1,1.034920514E-1,-5.545864105E-1,9.199142456E-3,5.642351599E-1
1.382544472E1,9.341850877E-2,-6.310844421E-1,2.022874355E-2,6.382819071E-1
1.383544475E1,9.475842118E-2,-6.955862045E-1,3.594875336E-2,7.029307499E-1
1.384544475E1,8.374539018E-2,-7.433423996E-1,4.653245211E-2,7.494908155E-1
1.385544475E1,8.924508095E-2,-7.958517075E-1,3.810858727E-2,8.017461501E-1
1.386544471E1,7.775491476E-2,-8.411941528E-1,5.607265234E-2,8.466389856E-1
1.387544475E1,7.338598371E-2,-8.505697250E-1,7.678866386E-2,8.571760955E-1
1.388544478E1,5.902713537E-2,-8.670682907E-1,8.381062746E-2,8.731070065E-1
1.389544478E1,6.616804004E-2,-8.572053909E-1,8.884876966E-2,8.643340764E-1
1.390544478E1,6.334209442E-2,-8.616867065E-1,1.084418297E-1,8.707903488E-1
1.391544478E1,6.252154708E-2,-8.613386154E-1,1.116239429E-1,8.707887567E-1
1.392544475E1,5.178454518E-2,-8.346414566E-1,1.386249065E-1,8.476584601E-1
1.393544475E1,5.275434256E-2,-7.959680557E-1,1.345283985E-1,8.089784029E-1
1.394544478E1,5.120161176E-2,-7.644977570E-1,1.350479722E-1,7.780208096E-1
1.395544478E1,4.942834377E-2,-7.042770386E-1,1.380003691E-1,7.193701482E-1
1.396544478E1,5.242618918E-2,-6.320781708E-1,1.384983063E-1,6.491941929E-1
1.397544474E1,4.576390982E-2,-5.599002838E-1,1.484003663E-1,5.810381502E-1
1.398544478E1,4.619103670E-2,-4.829540253E-1,1.555053592E-1,5.094704301E-1
1.399544481E1,4.412341118E-2,-3.940505981E-1,1.528280973E-1,4.249460868E-1
1.400544481E1,5.382817984E-2,-3.123483658E-1,1.449998617E-1,3.485454554E-1
1.401544481E1,5.608311296E-2,-2.282791138E-1,1.439213753E-1,2.756266163E-1
1.402544478E1,4.607683420E-2,-1.442184448E-1,1.401638985E-1,2.063200255E-1
1.403544481E1,4.765233397E-2,-5.535602570E-2,1.434115767E-1,1.609407185E-1
1.404544481E1,4.666319489E-2,5.503559113E-2,1.271163225E-1,1.461674707E-1
1.405544481E1,2.867275476E-2,1.582136154E-1,9.620767832E-2,1.873755383E-1
1.406544481E1,2.471357584E-2,2.446403503E-1,9.613925219E-2,2.640121544E-1
1.407544481E1,2.778348327E-2,3.262739182E-1,8.878576756E-2,3.392779158E-1
1.408544478E1,3.805780411E-2,4.126853943E-1,7.430374622E-2,4.210447456E-1
1.409544481E1,2.420812845E-2,5.326261520E-1,6.695318222E-2,5.373633593E-1
1.410544484E1,3.915435076E-2,6.022882462E-1,6.448644400E-2,6.069948073E-1
1.411544484E1,1.800847054E-2,6.863117218E-1,5.254256725E-2,6.885555939E-1
1.412544481E1,1.586034894E-2,7.679281235E-1,3.099757433E-2,7.687171151E-1
1.413544477E1,-8.717477322E-4,8.471679688E-1,3.573352098E-2,8.479217014E-1
1.414544481E1,3.790915012E-3,9.024553299E-1,1.403075457E-2,9.025723548E-1
1.415544481E1,-1.078155637E-2,9.074544907E-1,1.710355282E-3,9.075201485E-1
1.416544481E1,-1.823765039E-2,9.890584946E-1,-1.093626022E-3,9.892272305E-1
1.417544477E1,-2.102589607E-2,1.005996704E0,-3.269731998E-2,1.006747521E0
1.418544477E1,-2.131232619E-2,1.015741348E0,-4.764753580E-2,1.017081604E0
1.419544481E1,-2.595657110E-2,1.030269623E0,-2.431380749E-2,1.030883311E0
1.420544481E1,-3.554514050E-2,1.018441200E0,-6.331783533E-2,1.021026485E0
1.421544481E1,-4.288499057E-2,1.028161049E0,-3.998470306E-2,1.029831560E0
1.422544481E1,-6.709407270E-2,9.876270294E-1,-9.567379951E-2,9.945160832E-1
1.423544477E1,-6.256759167E-2,9.638195038E-1,-3.877997398E-2,9.666264148E-1
1.424544474E1,-8.434855938E-2,9.088640213E-1,-3.959304094E-2,9.136279864E-1
1.425544477E1,-8.451513946E-2,8.539161682E-1,-6.672269106E-2,8.606785397E-1
1.426544477E1,-1.059131920E-1,8.037462234E-1,-6.037336588E-2,8.129394438E-1
1.427544477E1,-1.362765431E-1,7.487525940E-1,-4.940330982E-2,7.626548566E-1
1.428544474E1,-1.206106097E-1,6.578044891E-1,-5.071848631E-2,6.706907111E-1
1.429544474E1,-1.372553259E-1,5.739994049E-1,-4.988485575E-2,5.922861134E-1
1.430544477E1,-1.506771892E-1,5.021219254E-1,-3.030562401E-2,5.251175812E-1
1.431544477E1,-1.535869390E-1,4.278202057E-1,-4.452621937E-2,4.567293076E-1
1.432544477E1,-1.724697053E-1,3.127651215E-1,-4.941344261E-2,3.605683136E-1
1.433544474E1,-1.664264649E-1,2.240524292E-1,-4.947245121E-2,2.834515526E-1
1.434544477E1,-1.595427543E-1,1.257448196E-1,-4.222291708E-2,2.074811433E-1
1.435544480E1,-1.686498523E-1,3.699111938E-2,-2.037447691E-2,1.738569380E-1
1.436544480E1,-1.745326072E-1,-7.330513000E-2,-3.212839365E-2,1.920091319E-1
1.437544480E1,-1.629004776E-1,-1.572628021E-1,-1.489663124E-2,2.269142221E-1
1.438544480E1,-1.697198004E-1,-2.412490845E-1,-1.927775145E-2,2.955969606E-1
1.439544477E1,-1.662228256E-1,-3.420095444E-1,-2.129024267E-2,3.808593318E-1
1.440544477E1,-1.640346199E-1,-4.020948410E-1,7.903516293E-3,4.343386735E-1
1.441544480E1,-1.517227441E-1,-4.789485931E-1,1.061815023E-2,5.025179510E-1
1.442544480E1,-1.342689842E-1,-5.534276962E-1,2.543157339E-2,5.700501206E-1
1.443544480E1,-1.263047457E-1,-6.183128357E-1,1.993417740E-3,6.310844835E-1
1.444544477E1,-1.254237890E-1,-6.832132339E-1,2.886825800E-2,6.952300527E-1
1.445544480E1,-1.391229331E-1,-7.289400101E-1,5.349028111E-2,7.440228081E-1
1.446544483E1,-1.242622733E-1,-7.626981735E-1,6.362795830E-2,7.753696754E-1
1.447544483E1,-1.239763647E-1,-8.180255890E-1,4.504376650E-2,8.285921458E-1
1.448544480E1,-1.332993358E-1,-8.398208618E-1,6.709265709E-2,8.529766805E-1
1.449544476E1,-1.257250458E-1,-8.568296432E-1,7.009142637E-2,8.688363671E-1
1.450544480E1,-1.346593797E-1,-8.595294952E-1,7.023006678E-2,8.728438371E-1
1.451544480E1,-1.120299101E-1,-8.454771042E-1,1.012376547E-1,8.588546426E-1
1.452544480E1,-1.106444299E-1,-8.434467316E-1,8.403700590E-2,8.548138963E-1
1.453544480E1,-9.478235245E-2,-8.127098083E-1,8.566969633E-2,8.226908434E-1
1.454544480E1,-8.128735423E-2,-7.676115036E-1,5.852204561E-2,7.741187792E-1
1.455544476E1,-5.832973123E-2,-7.177419662E-1,6.725400686E-2,7.232419990E-1
1.456544480E1,-6.662651896E-2,-6.750383377E-1,5.469232798E-2,6.805197287E-1
1.457544480E1,-6.340697408E-2,-6.203107834E-1,6.178343296E-2,6.265964450E-1
1.458544480E1,-5.322739482E-2,-5.440044403E-1,7.657587528E-2,5.519400795E-1
1.459544476E1,-3.350272775E-2,-4.820060730E-1,6.553804874E-2,4.875936044E-1
1.460544473E1,-5.672025681E-2,-4.176454544E-1,6.896930933E-2,4.270850954E-1
1.461544476E1,-4.116803408E-2,-3.269271851E-1,7.506906986E-2,3.379520034E-1
1.462544476E1,-2.738186717E-2,-2.433948517E-1,5.754864216E-2,2.516002120E-1
1.463544476E1,-2.012151480E-2,-1.263837814E-1,5.659937859E-2,1.399329312E-1
1.464544473E1,-9.788274765E-3,-3.575325012E-2,4.348003864E-2,5.713684431E-2
1.465544473E1,2.716550231E-2,5.964565277E-2,2.324271202E-2,6.953985959E-2
1.466544476E1,4.042100906E-2,1.741514206E-1,1.212543249E-2,1.791915215E-1
1.467544476E1,6.804609299E-2,2.336015701E-1,-1.549637318E-2,2.438034083E-1
1.468544476E1,5.234932899E-2,3.409309387E-1,-5.042433739E-3,3.449634522E-1
1.469544476E1,7.942563295E-2,4.434747696E-1,-2.551651001E-2,4.512531382E-1
1.470544473E1,8.447709680E-2,5.316762924E-1,-1.970142126E-2,5.387060477E-1
1.471544469E1,9.139826894E-2,6.055345535E-1,-4.236805439E-2,6.138573052E-1
1.472544473E1,1.052148044E-1,6.698360443E-1,-5.062878132E-2,6.799365815E-1
1.473544473E1,1.235577166E-1,7.580909729E-1,-7.083743811E-2,7.713535993E-1
1.474544473E1,1.297290027E-1,8.080301285E-1,-9.342581034E-2,8.236933196E-1
1.475544469E1,1.356569529E-1,8.675518036E-1,-9.463989735E-2,8.831792858E-1
1.476544469E1,1.412410140E-1,9.222583771E-1,-1.104621291E-1,9.395272322E-1
1.477544473E1,1.607604325E-1,9.386997223E-1,-1.118906736E-1,9.589163718E-1
1.478544476E1,1.606630981E-1,9.814929962E-1,-1.299120188E-1,1.003004619E0
1.479544476E1,1.527705193E-1,1.009971619E0,-1.500388384E-1,1.032421016E0
1.480544472E1,1.633380353E-1,9.882259369E-1,-1.672693491E-1,1.015504235E0
1.481544476E1,1.559683383E-1,9.929637909E-1,-1.596446037E-1,1.017737497E0
1.482544476E1,1.503521800E-1,1.007316589E0,-1.490340829E-1,1.029321936E0
1.483544476E1,1.585978866E-1,9.643049240E-1,-1.735882759E-1,9.925573866E-1
1.484544476E1,1.568020880E-1,9.309310913E-1,-1.616473794E-1,9.577836221E-1
1.485544476E1,1.403636336E-1,8.832483292E-1,-1.539227962E-1,9.074810124E-1
1.486544472E1,1.382690966E-1,8.260326385E-1,-1.623390913E-1,8.531132654E-1
1.487544476E1,1.313894689E-1,7.927846909E-1,-1.488077044E-1,8.172603572E-1
1.488544479E1,1.461323798E-1,7.356071472E-1,-1.253251433E-1,7.603807855E-1
1.489544479E1,1.489899457E-1,6.497173309E-1,-1.327530146E-1,6.796719627E-1
1.490544479E1,1.469994783E-1,5.710191727E-1,-1.232818961E-1,6.023870584E-1
1.491544476E1,1.473371685E-1,5.066604614E-1,-1.164066195E-1,5.403365298E-1
1.492544479E1,1.448691785E-1,4.279575348E-1,-9.061396122E-2,4.608097443E-1
1.493544479E1,1.134093702E-1,3.133220673E-1,-9.853458405E-2,3.474787293E-1
1.494544479E1,1.247482002E-1,2.202425003E-1,-7.308155298E-2,2.634573699E-1
1.495544475E1,1.143309474E-1,1.367464066E-1,-5.742943287E-2,1.872679497E-1
1.496544472E1,1.134181619E-1,3.884696960E-2,-4.917287827E-2,1.295790818E-1
1.497544475E1,1.147902906E-1,-7.342338562E-2,-3.644174337E-2,1.410524903E-1
1.498544475E1,1.016657054E-1,-1.450033188E-1,-1.436316967E-2,1.776743616E-1
1.499544475E1,1.053005457E-1,-2.357769012E-1,-2.398943901E-2,2.593346203E-1
1.500544475E1,1.038250923E-1,-3.289556503E-1,8.999586105E-3,3.450687790E-1
1.501544475E1,1.115933061E-1,-3.934392929E-1,-6.569683552E-3,4.090118628E-1
1.502544472E1,8.764573932E-2,-4.794988632E-1,1.303464174E-2,4.876175113E-1
1.503544475E1,8.236971498E-2,-5.416116714E-1,2.038401365E-2,5.482184607E-1
1.504544475E1,8.610373735E-2,-6.084938049E-1,1.569020748E-2,6.147558433E-1
1.505544475E1,7.501670718E-2,-6.657676697E-1,3.733098507E-2,6.710198945E-1
1.506544472E1,6.812646985E-2,-7.110500336E-1,4.724538326E-2,7.158669516E-1
1.507544472E1,4.655516148E-2,-7.706451416E-1,2.894514799E-2,7.725924792E-1
1.508544472E1,5.118680000E-2,-7.990579605E-1,6.144732237E-2,8.030501144E-1
1.509544472E1,2.687269449E-2,-8.058900833E-1,7.070219517E-2,8.094317565E-1
1.510544472E1,2.647265792E-2,-8.390293121E-1,9.488052130E-2,8.447918688E-1
1.511544468E1,3.311362863E-2,-8.314237595E-1,1.145828962E-1,8.399352477E-1
1.512544472E1,1.821041107E-2,-8.309936523E-1,1.275619268E-1,8.409245593E-1
1.513544475E1,3.193446994E-2,-8.114023209E-1,1.189614534E-1,8.206980956E-1
1.514544475E1,1.455554366E-2,-7.798576355E-1,1.460998058E-1,7.935584092E-1
1.515544475E1,1.618292928E-2,-7.363491058E-1,1.253181100E-1,7.471121211E-1
1.516544475E1,2.026435733E-2,-7.048254013E-1,1.233060956E-1,7.158169345E-1
1.517544472E1,2.742558718E-3,-6.637754440E-1,1.711623073E-1,6.854939075E-1
1.518544472E1,2.576652169E-2,-6.011781693E-1,1.325457096E-1,6.161553943E-1
1.519544475E1,5.667716265E-3,-5.146512985E-1,1.534687281E-1,5.370760957E-1
1.520544475E1,-7.335752249E-3,-4.281644821E-1,1.478155851E-1,4.530210638E-1
1.521544475E1,-6.042152643E-3,-3.728008270E-1,1.249313951E-1,3.932236230E-1
1.522544472E1,-3.116437793E-2,-2.791795731E-1,1.710650325E-1,3.289007416E-1
1.523544475E1,-1.180231571E-3,-1.999473572E-1,1.209910512E-1,2.337074519E-1
1.524544478E1,-2.622991800E-3,-1.111698151E-1,1.257012486E-1,1.678285190E-1
1.525544478E1,-1.620718837E-2,-1.520729065E-2,1.085490584E-1,1.108008697E-1
1.526544478E1,-8.304536343E-3,8.551406860E-2,1.174504757E-1,1.455205673E-1
1.527544475E1,-1.484319568E-2,1.527156830E-1,9.986752272E-2,1.830735436E-1
1.528544478E1,-4.290217161E-2,2.558107376E-1,7.506442070E-2,2.700266599E-1
1.529544478E1,-3.044441342E-2,3.421449661E-1,6.917983294E-2,3.503939061E-1
1.530544478E1,-1.093474030E-2,4.332675934E-1,6.099981070E-2,4.376772246E-1
1.531544478E1,-2.983051538E-2,5.148077011E-1,5.763643980E-2,5.188822486E-1
1.532544478E1,-3.187191486E-2,6.035394669E-1,3.045123816E-2,6.051470771E-1
1.533544475E1,-3.384798765E-2,6.802930832E-1,3.924155235E-2,6.822640726E-1
1.534544478E1,-4.769057035E-2,7.402706146E-1,2.656763792E-2,7.422808180E-1
1.535544481E1,-3.759923577E-2,8.002557755E-1,-4.380941391E-4,8.011386900E-1
1.536544481E1,-5.614911020E-2,8.362979889E-1,-8.316516876E-3,8.382220549E-1
1.537544478E1,-5.788499117E-2,9.058628082E-1,-6.492674351E-3,9.077335812E-1
1.538544474E1,-7.134146988E-2,9.466600418E-1,-3.839570284E-2,9.501205556E-1
1.539544478E1,-8.461531997E-2,9.539461136E-1,-2.957320213E-2,9.581479605E-1
1.540544478E1,-8.587875962E-2,9.683771133E-1,-2.581048012E-2,9.725202188E-1
1.541544478E1,-7.975384593E-2,9.851961136E-1,-5.345273018E-2,9.898632494E-1
1.542544474E1,-9.026065469E-2,9.732341766E-1,-6.685739756E-2,9.796946769E-1
1.543544474E1,-8.603622019E-2,9.588823318E-1,-7.093453407E-2,9.653441177E-1
1.544544478E1,-9.586067498E-2,9.540872574E-1,-5.832588673E-2,9.606631422E-1
1.545544478E1,-1.317049116E-1,9.253311157E-1,-8.659714460E-2,9.386601744E-1
1.546544478E1,-1.096383333E-1,8.654317856E-1,-8.126837015E-2,8.761262966E-1
1.547544478E1,-1.326620430E-1,8.246850967E-1,-9.022289515E-2,8.401457595E-1
1.548544474E1,-1.384050995E-1,7.695703506E-1,-9.200745821E-2,7.873117988E-1
1.549544471E1,-1.460182518E-1,7.048559189E-1,-9.384983778E-2,7.259138987E-1
1.550544474E1,-1.387506723E-1,6.018066406E-1,-8.849716187E-2,6.239028205E-1
1.551544474E1,-1.502572000E-1,5.394678116E-1,-9.760135412E-2,5.684441663E-1
1.552544474E1,-1.442719251E-1,4.723129272E-1,-8.776813745E-2,5.015945928E-1
1.553544471E1,-1.688195020E-1,3.859806061E-1,-7.320427895E-2,4.275978473E-1
1.554544471E1,-1.756381392E-1,2.948694229E-1,-6.318056583E-2,3.489821148E-1
1.555544474E1,-1.648019999E-1,1.989555359E-1,-7.699900866E-2,2.695771722E-1
1.556544474E1,-1.532297134E-1,9.105491638E-2,-6.923860312E-2,1.912180092E-1
1.557544474E1,-1.817002743E-1,1.666259766E-2,-6.382215023E-2,1.933026092E-1
1.558544471E1,-1.783099025E-1,-7.927989960E-2,-5.352896452E-2,2.023488914E-1
1.559544474E1,-1.598401815E-1,-1.680574417E-1,-3.121060133E-2,2.340219839E-1
1.560544477E1,-1.645434946E-1,-2.376861572E-1,-3.026360273E-2,2.906633045E-1
1.561544477E1,-1.542829573E-1,-3.240814209E-1,-5.078965425E-2,3.625073617E-1
1.562544477E1,-1.434123814E-1,-4.057073593E-1,-3.052014112E-2,4.313896748E-1
1.563544477E1,-1.367772520E-1,-4.777441025E-1,-1.248818636E-2,4.970949596E-1
1.564544474E1,-1.343269348E-1,-5.593624115E-1,-1.095843315E-2,5.753695509E-1
1.565544474E1,-1.412896812E-1,-6.098718643E-1,4.929363728E-3,6.260437393E-1
1.566544477E1,-1.169598550E-1,-6.364450455E-1,1.847434044E-2,6.473663606E-1
1.567544477E1,-1.236582547E-1,-6.965646744E-1,1.986789703E-2,7.077347264E-1
1.568544477E1,-1.065007150E-1,-7.327308655E-1,2.116328478E-2,7.407326158E-1
1.569544474E1,-9.423846006E-2,-7.832832336E-1,3.927117586E-2,7.899086888E-1
1.570544477E1,-9.897476435E-2,-8.002929688E-1,5.512923002E-2,8.082722758E-1
1.571544480E1,-9.421691298E-2,-8.005628586E-1,5.890184641E-2,8.082370597E-1
1.572544480E1,-7.282611728E-2,-8.223762512E-1,8.165103197E-2,8.296223436E-1
1.573544477E1,-8.999401331E-2,-8.035116196E-1,6.841939688E-2,8.114253256E-1
1.574544474E1,-6.665280461E-2,-7.966012955E-1,8.622920513E-2,8.040221988E-1
1.575544477E1,-5.303916335E-2,-7.705507278E-1,8.259397745E-2,7.767775371E-1
1.576544477E1,-5.386909842E-2,-7.397108078E-1,8.599954844E-2,7.466390569E-1
1.577544477E1,-4.263445735E-2,-7.041082382E-1,8.696871996E-2,7.107388172E-1
1.578544477E1,-3.605118394E-2,-6.565389633E-1,8.318680525E-2,6.627692983E-1
1.579544477E1,-4.122012854E-2,-5.730533600E-1,8.404612541E-2,5.806487782E-1
1.580544473E1,-3.432795405E-2,-5.207395554E-1,9.665650129E-2,5.307452988E-1
1.581544477E1,-2.951616049E-2,-4.540729523E-1,7.561665773E-2,4.612714262E-1
1.582544477E1,-1.708826423E-2,-3.682746887E-1,6.644761562E-2,3.746111861E-1
1.583544477E1,1.244017482E-2,-2.897138596E-1,8.105236292E-2,3.010952738E-1
1.584544473E1,2.085939050E-2,-1.991853714E-1,4.076540470E-2,2.043813704E-1
1.585544470E1,3.213217854E-2,-9.905433655E-2,4.641032219E-2,1.140094579E-1
1.586544473E1,2.934852242E-2,-6.127357483E-3,3.556889296E-2,4.651909742E-2
1.587544473E1,5.532899499E-2,7.722949982E-2,2.253252268E-2,9.763917199E-2
1.588544473E1,8.110547066E-2,1.797819138E-1,2.664649487E-2,1.990217817E-1
1.589544470E1,8.739104867E-2,2.823381424E-1,9.348273277E-3,2.957015594E-1
1.590544470E1,9.578859806E-2,2.819547653E-1,8.916318417E-3,2.979151657E-1
1.591544473E1,1.251381040E-1,3.629970551E-1,-5.949079990E-3,3.840075502E-1
1.592544473E1,1.323771775E-1,5.182714462E-1,-1.124912500E-2,5.350285524E-1
1.593544473E1,1.463845372E-1,6.065273285E-1,-4.036211967E-2,6.252462984E-1
1.594544473E1,1.456065178E-1,6.708612442E-1,-5.033552647E-2,6.883238571E-1
1.595544470E1,1.489217281E-1,7.543802261E-1,-7.203888893E-2,7.723061622E-1
1.596544466E1,1.612407863E-1,8.068380356E-1,-7.195818424E-2,8.259323139E-1
1.597544470E1,1.800175011E-1,8.545131683E-1,-7.171797752E-2,8.762091781E-1
1.598544470E1,1.789219677E-1,9.142408371E-1,-1.120162010E-1,9.382947341E-1
