"Time (s)","Linear Acceleration x (m/s^2)","Linear Acceleration y (m/s^2)","Linear Acceleration z (m/s^2)","Absolute acceleration (m/s^2)"
2.757251000E-2,-1.014618874E-1,4.847335815E-2,-8.067575693E-1,8.145562944E-1
3.757151000E-2,-8.149316907E-2,5.195045471E-2,-7.870240211E-1,7.929355562E-1
4.757101000E-2,-8.069646358E-2,-3.802490234E-2,-8.007447124E-1,8.056983969E-1
5.757034300E-2,-9.665471315E-2,-4.904079437E-2,-8.119492531E-1,8.191512209E-1
6.756959300E-2,-1.295356899E-1,-6.873893738E-2,-8.136414886E-1,8.267508744E-1
7.756899300E-2,-1.714033782E-1,-4.043102264E-2,-7.283948660E-1,7.493816561E-1
8.756849300E-2,-1.480168849E-1,-5.517387390E-2,-7.194860578E-1,7.366229306E-1
9.756806400E-2,-1.049617976E-1,-3.628730774E-2,-7.914143801E-1,7.991686109E-1
1.075674390E-1,-8.822384477E-2,-1.495933533E-2,-7.959082723E-1,8.009227218E-1
1.175666610E-1,-1.056487411E-1,1.700401306E-3,-7.442355156E-1,7.516987765E-1
1.275659610E-1,-1.190154403E-1,2.805233002E-2,-6.964210272E-1,7.070741512E-1
1.375651420E-1,-1.112466455E-1,1.615715027E-2,-7.367312908E-1,7.452582536E-1
1.475642250E-1,-1.444075853E-1,-1.255893707E-2,-7.941472530E-1,8.072676985E-1
1.575633780E-1,-1.421352029E-1,-6.446838379E-4,-7.658844590E-1,7.789620248E-1
1.675625200E-1,-1.474357843E-1,-1.515960693E-2,-7.715947628E-1,7.857007078E-1
1.775616530E-1,-1.773486733E-1,1.822566986E-2,-7.699314356E-1,7.903031966E-1
1.875608400E-1,-1.735433042E-1,-3.351211548E-3,-7.795715928E-1,7.986616163E-1
1.975600160E-1,-1.599410474E-1,-8.096694946E-4,-7.878723145E-1,8.039431436E-1
2.075592380E-1,-1.292702258E-1,3.784847260E-2,-7.708515525E-1,7.825314141E-1
2.175585010E-1,-1.127712876E-1,2.638721466E-2,-7.742730975E-1,7.828872703E-1
2.275577010E-1,-9.411102533E-2,2.460193634E-2,-7.314182520E-1,7.378582518E-1
2.375569390E-1,-6.100647151E-2,3.242111206E-2,-7.387856841E-1,7.420088983E-1
2.475561200E-1,-2.302277088E-2,-7.749557495E-3,-7.874022722E-1,7.877768986E-1
2.575552500E-1,-1.125717163E-2,-3.823280334E-2,-7.217209339E-1,7.228205708E-1
2.675544160E-1,-9.261757135E-3,-4.149150848E-2,-6.750337481E-1,6.763711160E-1
2.775535360E-1,-2.643887699E-2,-2.207946777E-2,-5.697923899E-1,5.708326240E-1
2.875526120E-1,-8.859175444E-2,-1.238155365E-2,-5.346734524E-1,5.421046970E-1
2.975517230E-1,-1.651318967E-1,-3.620815277E-2,-5.906423926E-1,6.143598372E-1
3.075507940E-1,-1.899452209E-1,-4.658889771E-2,-4.869812727E-1,5.247861205E-1
3.175498280E-1,-1.402578652E-1,-3.388404846E-2,-4.801590443E-1,5.013712250E-1
3.275488940E-1,-7.704195380E-2,4.453659058E-3,-4.160564542E-1,4.231527748E-1
3.375479270E-1,-4.497763515E-2,8.514976501E-2,-3.427574039E-1,3.560282405E-1
3.475469600E-1,-4.503609240E-2,8.858680725E-2,-2.913679481E-1,3.078492378E-1
3.575459600E-1,-9.620726109E-2,1.273584366E-1,-2.040640116E-1,2.590716682E-1
3.675449260E-1,-4.418230653E-1,1.200971603E-1,-2.105969191E-1,5.039662799E-1
3.775438920E-1,-5.758243203E-1,1.125459671E-1,-1.277141571E-1,6.004591148E-1
3.875427920E-1,-8.968092799E-1,-8.697290421E-1,1.564822793E-1,1.259040188E0
3.975416250E-1,-3.345264196E-1,-2.469354630E0,1.624348164E-1,2.497199488E0
4.075405250E-1,-1.044531167E-1,-2.534092903E0,1.422814131E-1,2.540232528E0
4.175394250E-1,-5.082132667E-2,-2.374010086E0,1.124327183E-1,2.377214297E0
4.275382580E-1,2.514891140E-2,-2.259881973E0,1.928621531E-2,2.260104192E0
4.375371580E-1,7.854104042E-2,-2.136557579E0,-6.844878197E-3,2.138011655E0
4.475360580E-1,1.266671419E-1,-2.037444115E0,-1.131409407E-1,2.044510689E0
4.575348910E-1,1.609736681E-1,-1.936066628E0,-1.141716242E-1,1.946099090E0
4.675337570E-1,1.993239522E-1,-1.705370903E0,-1.404789686E-1,1.722717126E0
4.775325900E-1,2.313911766E-1,-1.457744598E0,-2.128519416E-1,1.491263605E0
4.875314230E-1,2.199487984E-1,-1.178611755E0,-2.051790953E-1,1.216388756E0
4.975302230E-1,2.449737191E-1,-9.710149765E-1,-2.170844674E-1,1.024698919E0
5.075289560E-1,2.298888862E-1,-7.751779556E-1,-2.011892200E-1,8.332027755E-1
5.175276890E-1,1.916590929E-1,-5.839767456E-1,-2.013804913E-1,6.467736463E-1
5.275264220E-1,1.334651262E-1,-4.141988754E-1,-2.725941539E-1,5.134989981E-1
5.375250880E-1,1.043679193E-1,-8.625507355E-2,-2.635799646E-1,2.963224562E-1
5.475238210E-1,3.899309412E-2,2.178621292E-1,-2.722592950E-1,3.508696231E-1
5.575225540E-1,6.740242243E-4,4.358778000E-1,-3.009378314E-1,5.296730021E-1
5.675212200E-1,-2.363390289E-2,6.923017502E-1,-2.657911777E-1,7.419469151E-1
5.775199530E-1,-6.159231439E-2,8.817596436E-1,-2.939334512E-1,9.314990907E-1
5.875186860E-1,-1.000444293E-1,1.049698830E0,-2.134990692E-1,1.075852394E0
5.975174190E-1,-1.146191210E-1,1.267898560E0,-2.000056505E-1,1.288684042E0
6.075161520E-1,-1.441213340E-1,1.543443680E0,-2.330521345E-1,1.567578594E0
6.175149180E-1,-1.354248822E-1,1.830792904E0,-1.963737011E-1,1.846267907E0
6.275136840E-1,-1.529183090E-1,2.010097504E0,-2.276170254E-1,2.028715232E0
6.375124500E-1,-1.557425708E-1,2.124446392E0,-2.577219009E-1,2.145681430E0
6.475111500E-1,-1.077716649E-1,2.240923882E0,-3.100919724E-1,2.264842512E0
6.575099160E-1,-6.201280653E-2,2.326032639E0,-3.530591130E-1,2.353491908E0
6.675086820E-1,-4.558569193E-2,2.470823288E0,-3.928603530E-1,2.502275971E0
6.775073820E-1,1.273030229E-2,2.615473270E0,-4.503081441E-1,2.653985666E0
6.875061480E-1,4.941446334E-2,2.705000401E0,-4.886808395E-1,2.749232242E0
6.975049140E-1,9.462145716E-2,2.720243931E0,-5.243208408E-1,2.771929402E0
7.075036140E-1,1.297863722E-1,2.654084206E0,-5.615708232E-1,2.715947213E0
7.175023800E-1,1.519055665E-1,2.571239948E0,-5.521132946E-1,2.634232196E0
7.275011460E-1,1.914046109E-1,2.469331741E0,-5.508853197E-1,2.537264198E0
7.374999120E-1,2.404159755E-1,2.424979687E0,-5.749934316E-1,2.503785887E0
7.474986780E-1,2.360545695E-1,2.361606121E0,-5.763205886E-1,2.442345318E0
7.574974440E-1,2.546759248E-1,2.216982365E0,-5.908338428E-1,2.308453002E0
7.674962100E-1,2.575951517E-1,2.036683559E0,-6.107815504E-1,2.141842498E0
7.774949760E-1,2.686466277E-1,1.796834469E0,-5.971266031E-1,1.912418704E0
7.874936760E-1,2.778417468E-1,1.516715050E0,-5.780423284E-1,1.646740268E0
7.974924420E-1,2.516195178E-1,1.256382942E0,-5.420864224E-1,1.391282922E0
8.074912080E-1,2.112854570E-1,1.070679665E0,-5.245641470E-1,1.210852606E0
8.174899080E-1,1.837386191E-1,8.733549118E-1,-4.632382989E-1,1.005533890E0
8.274886740E-1,1.358791292E-1,5.638074875E-1,-3.849872947E-1,6.961014565E-1
8.374874400E-1,9.522621334E-2,2.472105026E-1,-3.096181154E-1,4.074855110E-1
8.474862060E-1,3.425298259E-2,-9.327697754E-2,-2.524517775E-1,2.713038173E-1
8.574849720E-1,-1.503850892E-2,-4.506330490E-1,-1.692276001E-1,4.815955588E-1
8.674837380E-1,-5.836685002E-2,-7.052202225E-1,-1.158090830E-1,7.170453229E-1
8.774825040E-1,-9.912271053E-2,-9.074077606E-1,-7.865166664E-2,9.161878849E-1
8.874812700E-1,-1.029305011E-1,-1.114629745E0,-5.795449018E-2,1.120871483E0
8.974799700E-1,-1.264324486E-1,-1.372389793E0,-3.250050545E-2,1.378584489E0
9.074787360E-1,-1.142890826E-1,-1.625732422E0,-8.423924446E-3,1.629766506E0
9.174774690E-1,-1.144822687E-1,-1.625498772E0,-6.073832512E-3,1.629536541E0
9.274761350E-1,-8.422076702E-2,-2.075634956E0,-1.575469971E-3,2.077343518E0
9.374748680E-1,-5.974515527E-2,-2.193201065E0,-1.138210297E-2,2.194044199E0
9.474736010E-1,-6.317878515E-2,-2.227119446E0,-3.502190113E-2,2.228290627E0
9.574722670E-1,-1.632043719E-2,-2.299553871E0,-4.358536005E-2,2.300024793E0
9.674710000E-1,1.777151227E-2,-2.412821770E0,-8.932113647E-2,2.414539912E0
9.774697330E-1,5.008147284E-2,-2.495129585E0,-1.219583750E-1,2.498610343E0
9.874684660E-1,6.998137385E-2,-2.551142693E0,-1.500158310E-1,2.556507614E0
9.974671990E-1,9.358933568E-2,-2.549658775E0,-1.774348617E-1,2.557538263E0
1.007465932E0,1.116352081E-1,-2.423391342E0,-2.163503170E-1,2.435589349E0
1.017464665E0,1.554859728E-1,-2.304003716E0,-2.214649320E-1,2.319839590E0
1.027463431E0,1.475872397E-1,-2.232220650E0,-2.167372108E-1,2.247568918E0
1.037462131E0,1.402208805E-1,-2.157732964E0,-2.092789412E-1,2.172388343E0
1.047460897E0,1.138854697E-1,-2.078166008E0,-1.970986724E-1,2.090596026E0
1.057459663E0,1.048949435E-1,-1.979240417E0,-1.830497384E-1,1.990452910E0
1.067458363E0,7.042999566E-2,-1.827474594E0,-1.411143541E-1,1.834267439E0
1.077457163E0,2.592887729E-2,-1.570313454E0,-1.392125487E-1,1.576685379E0
1.087455929E0,3.387231380E-3,-1.310802460E0,-9.908342361E-2,1.314546342E0
1.097454695E0,-2.486738749E-2,-1.118399620E0,-1.122678518E-1,1.124295409E0
1.107453461E0,-4.599120840E-2,-9.381570816E-1,-1.147095561E-1,9.462622170E-1
1.117452227E0,-7.802022994E-2,-7.006416321E-1,-1.044670939E-1,7.126704895E-1
1.127450993E0,-1.016044468E-1,-4.944124222E-1,-1.005062461E-1,5.146538762E-1
1.137449759E0,-1.208651736E-1,-2.093601227E-1,-1.341589689E-1,2.764754602E-1
1.147448459E0,-1.356536448E-1,1.425437927E-1,-1.458113790E-1,2.449114175E-1
1.157447225E0,-1.500897408E-1,4.607114792E-1,-1.621456742E-1,5.109532435E-1
1.167445991E0,-1.542824358E-1,6.613845825E-1,-1.830863953E-1,7.033869946E-1
1.177444691E0,-1.528212726E-1,8.642559052E-1,-2.301898003E-1,9.073477586E-1
1.187443457E0,-1.265114397E-1,1.098082542E0,-3.032305241E-1,1.146184612E0
1.197442223E0,-1.065860316E-1,1.334171295E0,-2.964678407E-1,1.370863526E0
1.207440923E0,-9.110525995E-2,1.615663528E0,-3.768984079E-1,1.661541819E0
1.217439689E0,-6.804514676E-2,1.937865734E0,-4.549328089E-1,1.991712230E0
1.227438489E0,-4.181245714E-2,2.128471375E0,-4.530115724E-1,2.176547302E0
1.237437289E0,-1.313198358E-3,2.235373497E0,-5.239915848E-1,2.295966806E0
1.247436122E0,-4.695318639E-3,2.342481613E0,-4.924561977E-1,2.393690720E0
1.257435022E0,1.727583632E-2,2.437798023E0,-5.354887247E-1,2.495977931E0
1.267433922E0,1.887465268E-2,2.523758888E0,-5.451155901E-1,2.582027534E0
1.277432822E0,3.818506747E-2,2.662602901E0,-5.407625437E-1,2.717229552E0
1.287431655E0,4.612009600E-2,2.751352310E0,-5.584422350E-1,2.807832674E0
1.297430555E0,5.688377097E-2,2.739725113E0,-5.430401564E-1,2.793603778E0
1.307429455E0,3.191781789E-2,2.661231995E0,-5.475690961E-1,2.717168819E0
1.317428288E0,2.760638669E-2,2.542286873E0,-5.207276344E-1,2.595215198E0
1.327427154E0,1.662161201E-2,2.449831486E0,-4.828199744E-1,2.497011356E0
1.337426020E0,1.095386967E-2,2.355082035E0,-4.698066711E-1,2.401509877E0
1.347424886E0,-3.560248762E-3,2.315502644E0,-4.220190048E-1,2.353649338E0
1.357423752E0,-3.628828749E-2,2.192158222E0,-3.975925446E-1,2.228217750E0
1.367422618E0,-6.537022442E-2,1.958686352E0,-3.510839939E-1,1.990976007E0
1.377421451E0,-1.093146577E-1,1.667714119E0,-2.901958227E-1,1.696300001E0
1.387420317E0,-1.338889003E-1,1.426944733E0,-2.513139248E-1,1.455079447E0
1.397419117E0,-1.528793573E-1,1.147751808E0,-2.109627724E-1,1.176950127E0
1.407417983E0,-1.871909499E-1,9.378843307E-1,-1.886301637E-1,9.748070621E-1
1.417416849E0,-2.000824362E-1,7.805194855E-1,-1.466128826E-1,8.189865602E-1
1.427415649E0,-1.942272782E-1,4.888982773E-1,-1.262795329E-1,5.410104265E-1
1.437414515E0,-1.923327744E-1,1.947736740E-1,-9.339153767E-2,2.892242374E-1
1.447413381E0,-1.871973872E-1,-1.449642181E-1,-1.029739380E-1,2.581881450E-1
1.457412181E0,-1.791583747E-1,-4.153652191E-1,-7.090175152E-2,4.578788561E-1
1.467411047E0,-1.635344625E-1,-6.498937607E-1,-8.528113365E-2,6.755577639E-1
1.477409913E0,-1.576066911E-1,-8.557367325E-1,-8.834105730E-2,8.746024050E-1
1.487408779E0,-1.258592606E-1,-1.025679588E0,-8.450806141E-2,1.036822446E0
1.497407645E0,-9.268471599E-2,-1.257907867E0,-7.136696577E-2,1.263335230E0
1.507406511E0,-6.346052140E-2,-1.533229828E0,-6.298476458E-2,1.535834634E0
1.517405377E0,-2.924582176E-2,-1.765493393E0,-6.418770552E-2,1.766901893E0
1.527404210E0,-1.496069320E-2,-1.957032204E0,-5.043423176E-2,1.957739125E0
1.537402976E0,5.286280066E-4,-2.067087173E0,-7.882738113E-2,2.068589717E0
1.547401776E0,2.596453577E-2,-2.126793861E0,-7.977885008E-2,2.128448015E0
1.557400509E0,2.727832459E-2,-2.198369980E0,-7.233142853E-2,2.199728736E0
1.567399175E0,3.774725646E-2,-2.324928284E0,-4.209399223E-2,2.325615678E0
1.577397908E0,2.112140693E-2,-2.451406479E0,-2.051734924E-2,2.451583325E0
1.587396641E0,1.591492444E-2,-2.515563011E0,1.134449244E-2,2.515638934E0
1.597395374E0,1.281462051E-2,-2.515048027E0,1.728785038E-2,2.515140088E0
1.607394107E0,-4.474734422E-3,-2.492964745E0,7.118690014E-2,2.493984927E0
1.617392840E0,-3.756999969E-2,-2.377593994E0,7.661390305E-2,2.379124712E0
1.627391573E0,-6.692505628E-2,-2.305417061E0,7.598906755E-2,2.307639731E0
1.637390306E0,-9.609248489E-2,-2.278967857E0,8.465754986E-2,2.282563287E0
1.647389006E0,-9.314005822E-2,-2.221593857E0,7.917350531E-2,2.224954557E0
1.657387772E0,-9.814269096E-2,-2.068605423E0,7.424062490E-2,2.072262545E0
1.667386538E0,-1.153336316E-1,-1.877438545E0,6.267577410E-2,1.882021676E0
1.677385238E0,-1.158149838E-1,-1.650524139E0,3.242129087E-2,1.654900053E0
1.687384004E0,-8.731493354E-2,-1.339972496E0,-1.981616020E-3,1.342815741E0
1.697382770E0,-7.063084841E-2,-1.122900963E0,-3.539574146E-2,1.125676751E0
1.707381470E0,-6.583404541E-2,-9.178991318E-1,-9.858244658E-2,9.255222506E-1
1.717380236E0,-4.206197709E-2,-7.153930664E-1,-1.123937964E-1,7.253887336E-1
1.727379002E0,-1.657842845E-2,-4.578590393E-1,-1.553149223E-1,4.837690247E-1
1.737377768E0,-3.457958577E-3,-1.333332062E-1,-1.934332848E-1,2.349598625E-1
1.747376534E0,2.234904841E-2,1.888017654E-1,-2.337669730E-1,3.013180782E-1
1.757375300E0,6.775595248E-2,5.157203674E-1,-3.024466634E-1,6.016912420E-1
1.767374066E0,6.495031714E-2,7.469329834E-1,-3.294864893E-1,8.189559036E-1
1.777372832E0,9.016608447E-2,9.542169571E-1,-3.391001225E-1,1.016685210E0
1.787371532E0,1.145015582E-1,1.204716682E0,-3.691243529E-1,1.265189978E0
1.797370298E0,1.373558640E-1,1.419388771E0,-4.003628492E-1,1.481155471E0
1.807369064E0,1.463992894E-1,1.682073593E0,-4.017655253E-1,1.735574793E0
1.817367764E0,1.462634504E-1,1.959238052E0,-4.498558640E-1,2.015533935E0
1.827366530E0,1.535159796E-1,2.159883022E0,-4.589086175E-1,2.213426969E0
1.837365296E0,1.599265784E-1,2.272102833E0,-4.809833765E-1,2.327954639E0
1.847364062E0,1.499762684E-1,2.331684113E0,-4.597172737E-1,2.381298733E0
1.857362828E0,1.503849179E-1,2.412853241E0,-4.503632784E-1,2.459126566E0
1.867361594E0,1.183312014E-1,2.515584946E0,-4.672896266E-1,2.561353058E0
1.877360360E0,1.236141026E-1,2.601496220E0,-4.656375647E-1,2.645728892E0
1.887359126E0,1.069174558E-1,2.692168713E0,-4.739040732E-1,2.735651438E0
1.897357826E0,1.065014228E-1,2.698991299E0,-4.802451134E-1,2.743452561E0
1.907356592E0,8.212306350E-2,2.605226517E0,-4.965267181E-1,2.653391826E0
1.917355358E0,7.252418995E-2,2.477909088E0,-4.721307158E-1,2.523529397E0
1.927354058E0,7.552008331E-2,2.400896549E0,-4.762617946E-1,2.448843160E0
1.937352824E0,4.580657184E-2,2.345406055E0,-4.780603647E-1,2.394069656E0
1.947351557E0,5.122004449E-2,2.222923756E0,-4.794277549E-1,2.274613041E0
1.957350223E0,4.129925370E-2,2.148380280E0,-4.634315372E-1,2.198183851E0
1.967348956E0,5.391973630E-2,1.908655167E0,-4.564952850E-1,1.963226892E0
1.977347689E0,5.801380053E-2,1.637866020E0,-4.491095543E-1,1.699314595E0
1.987346422E0,5.611833930E-2,1.410211563E0,-4.292227626E-1,1.475153585E0
1.997345155E0,6.224654242E-2,1.197009087E0,-4.324352741E-1,1.274247092E0
2.007343888E0,8.613916487E-2,9.934911728E-1,-4.130165577E-1,1.079364324E0
2.017342621E0,8.677614480E-2,7.661075592E-1,-3.950451016E-1,8.663206819E-1
2.027341354E0,9.509338439E-2,5.772104263E-1,-3.922602534E-1,7.043314095E-1
2.037340020E0,1.131937653E-1,2.711114883E-1,-3.618393540E-1,4.660922502E-1
2.047338753E0,1.235393584E-1,-7.544231415E-2,-3.386480212E-1,3.682879283E-1
2.057337519E0,1.329634637E-1,-3.213062286E-1,-3.118501902E-1,4.670840570E-1
2.067336219E0,1.335704178E-1,-5.598363876E-1,-2.717393637E-1,6.364747593E-1
2.077334985E0,1.489738822E-1,-8.030633926E-1,-2.404177189E-1,8.514133601E-1
2.087333785E0,1.311816871E-1,-9.744129181E-1,-2.134758234E-1,1.006111871E0
2.097332551E0,1.183976158E-1,-1.234315872E0,-1.600486040E-1,1.250267661E0
2.107331317E0,1.179620028E-1,-1.530182838E0,-1.239477992E-1,1.539719978E0
2.117330083E0,1.037666649E-1,-1.773454666E0,-1.126368642E-1,1.780055066E0
2.127328849E0,7.888977975E-2,-1.961779594E0,-6.658554077E-2,1.964493932E0
2.137327615E0,7.708353549E-2,-2.102329254E0,-5.518686771E-2,2.104465670E0
2.147326315E0,4.802373797E-2,-2.202373505E0,-5.293852091E-2,2.203533031E0
2.157325081E0,3.302767873E-2,-2.271426201E0,-4.488807917E-2,2.272109758E0
2.167323847E0,1.550027728E-2,-2.371730804E0,-5.241423845E-2,2.372360537E0
2.177322547E0,-9.049203247E-3,-2.524841309E0,-1.265883446E-3,2.524857842E0
2.187321313E0,-2.844247222E-2,-2.606274605E0,-4.191696644E-3,2.606433168E0
2.197320079E0,-3.980477154E-2,-2.599201202E0,-1.756441593E-2,2.599565313E0
2.207318779E0,-6.896197051E-2,-2.505992889E0,-2.795457840E-3,2.506943144E0
2.217317545E0,-5.822203308E-2,-2.458355904E0,-5.322939157E-2,2.459621296E0
2.227316311E0,-4.313435405E-2,-2.312579155E0,-8.726197481E-2,2.314626875E0
2.237315077E0,-5.000146478E-2,-2.245798111E0,-7.555913925E-2,2.247625077E0
2.247313843E0,-3.590148315E-2,-2.193339348E0,-1.281133890E-1,2.197371032E0
2.257312609E0,-2.698029019E-2,-2.028228760E0,-1.027548313E-1,2.031009206E0
2.267311375E0,6.465543061E-3,-1.788759232E0,-1.381568909E-1,1.794098302E0
2.277310175E0,8.995354176E-3,-1.539573669E0,-1.578671336E-1,1.547672456E0
2.287309008E0,2.051949501E-2,-1.307046890E0,-1.573304534E-1,1.316641749E0
2.297307908E0,2.172916383E-2,-1.036153793E0,-1.728738546E-1,1.050700818E0
2.307306874E0,5.006357096E-3,-8.322639465E-1,-1.641091108E-1,8.483042736E-1
2.317305807E0,3.720781580E-2,-6.642761230E-1,-1.720468998E-1,6.872025356E-1
2.327304807E0,1.312690042E-2,-4.005374908E-1,-1.777758002E-1,4.384139964E-1
2.337303840E0,2.364464104E-2,-8.415985107E-2,-1.837425828E-1,2.034779750E-1
2.347302873E0,3.769128770E-2,2.154340744E-1,-2.308413386E-1,3.179940207E-1
2.357301906E0,1.602379233E-2,5.508012772E-1,-2.313218117E-1,5.976191006E-1
2.367301006E0,-2.342471853E-3,7.687873840E-1,-2.539357543E-1,8.096436848E-1
2.377300106E0,-4.123076797E-4,9.220361710E-1,-2.678239346E-1,9.601460985E-1
2.387299172E0,-3.799494356E-2,1.147010803E0,-2.468162775E-1,1.173880604E0
2.397298205E0,-5.225881562E-2,1.386270523E0,-3.005845547E-1,1.419446379E0
2.407297305E0,-5.958915874E-2,1.666151047E0,-3.024345636E-1,1.694425225E0
2.417296405E0,-8.119601011E-2,1.862138748E0,-3.147717714E-1,1.890300182E0
2.427295438E0,-1.069177538E-1,2.082001686E0,-3.515946269E-1,2.114185708E0
2.437294538E0,-1.291930825E-1,2.217989445E0,-3.748323917E-1,2.253146101E0
2.447293638E0,-1.284659207E-1,2.274960518E0,-3.814791441E-1,2.310297641E0
2.457292671E0,-1.214570701E-1,2.346284389E0,-3.977358937E-1,2.382854611E0
2.467291771E0,-1.334622055E-1,2.482372761E0,-4.370958805E-1,2.524091815E0
2.477290871E0,-1.390368640E-1,2.575446129E0,-4.373291731E-1,2.616010477E0
2.487289971E0,-1.310423613E-1,2.659096241E0,-4.483968914E-1,2.699819381E0
2.497289071E0,-1.433556676E-1,2.680604458E0,-4.559481144E-1,2.722880789E0
2.507288171E0,-1.258244812E-1,2.613673687E0,-4.333901405E-1,2.652347820E0
2.517287271E0,-1.240557134E-1,2.472661018E0,-4.309706092E-1,2.513001790E0
2.527286371E0,-1.167770997E-1,2.413225651E0,-4.125705361E-1,2.451022109E0
2.537285371E0,-1.206334084E-1,2.332344055E0,-4.001871347E-1,2.369500149E0
2.547284471E0,-9.751819819E-2,2.261183262E0,-3.816759586E-1,2.295242053E0
2.557283571E0,-6.685250252E-2,2.151812553E0,-3.813806772E-1,2.186370907E0
2.567282604E0,-8.112944663E-2,1.965917587E0,-3.391368985E-1,1.996604063E0
2.577281670E0,-8.624722809E-2,1.717803955E0,-3.037082553E-1,1.746575998E0
2.587280636E0,-5.343012512E-2,1.448163986E0,-2.750657201E-1,1.475023681E0
2.597279602E0,-5.268668383E-2,1.228797913E0,-2.438087463E-1,1.253859203E0
2.607278502E0,-5.080540478E-2,1.069256783E0,-2.388823628E-1,1.096793526E0
2.617277368E0,-6.444127858E-2,8.019657135E-1,-2.005967498E-1,8.291807644E-1
2.627276234E0,-6.746683270E-2,5.728750229E-1,-1.629427671E-1,5.994062985E-1
2.637275067E0,-8.827581257E-2,2.862625122E-1,-1.380085349E-1,3.298260158E-1
2.647273833E0,-9.558803588E-2,-9.143352509E-2,-8.532178402E-2,1.574070168E-1
2.657272633E0,-1.154096872E-1,-3.878431320E-1,-4.810661077E-2,4.074996159E-1
2.667271366E0,-1.208966672E-1,-6.077947617E-1,-2.242457867E-2,6.201075215E-1
2.677270032E0,-1.235071421E-1,-6.076068878E-1,-1.985412836E-2,6.203501678E-1
2.687268765E0,-1.397584677E-1,-1.045681000E0,-6.684720516E-3,1.055000411E0
2.697267498E0,-1.600609422E-1,-1.277942657E0,2.887666225E-3,1.287930619E0
2.707266198E0,-1.553241313E-1,-1.546167374E0,-4.627704620E-4,1.553949596E0
2.717264964E0,-1.543003321E-1,-1.821657181E0,2.418351173E-2,1.828340318E0
2.727263730E0,-1.398675442E-1,-2.001356125E0,1.987975836E-2,2.006336082E0
2.737262496E0,-1.453640908E-1,-2.102034569E0,4.676145315E-2,2.107573648E0
2.747261262E0,-1.372897327E-1,-2.217054367E0,2.337497473E-2,2.221424076E0
2.757260028E0,-1.346972287E-1,-2.303289413E0,2.437001467E-2,2.307353324E0
2.767258794E0,-1.043370813E-1,-2.367964745E0,3.533023596E-2,2.370525571E0
2.777257560E0,-1.010277420E-1,-2.490022659E0,2.547758818E-2,2.492201548E0
2.787256260E0,-7.784494758E-2,-2.566554070E0,4.219424725E-2,2.568080992E0
2.797255026E0,-4.733991623E-2,-2.532967567E0,3.751987219E-2,2.533687729E0
2.807253792E0,-4.107135907E-2,-2.427556038E0,4.261940718E-2,2.428277494E0
2.817252492E0,-1.877557486E-2,-2.353265762E0,2.162069082E-2,2.353439977E0
2.827251258E0,-9.471446276E-3,-2.255021095E0,3.177535534E-2,2.255264845E0
2.837250058E0,-1.342668757E-2,-2.190323830E0,3.709512949E-2,2.190679074E0
2.847248824E0,2.669124492E-2,-2.116114616E0,2.728682756E-2,2.116458850E0
2.857247590E0,3.212459385E-3,-2.013253212E0,1.668393612E-2,2.013324904E0
2.867246356E0,1.437207870E-2,-1.797930717E0,1.471638680E-2,1.798048385E0
2.877245122E0,1.924677193E-2,-1.532486916E0,1.545369625E-3,1.532608552E0
2.887243888E0,1.806976274E-3,-1.305446625E0,-2.249008417E-2,1.305641589E0
2.897242588E0,1.255399641E-2,-1.102502823E0,-2.180546522E-2,1.102789896E0
2.907241354E0,-5.804959685E-3,-8.685684204E-1,-5.857992172E-2,8.705609719E-1
2.917240120E0,4.560367204E-3,-6.922206879E-1,-7.756453753E-2,6.965676817E-1
2.927238820E0,-6.255699322E-3,-4.202051163E-1,-1.167776585E-1,4.361748446E-1
2.937237586E0,-2.137750015E-2,-1.195087433E-1,-1.564408541E-1,1.980229231E-1
2.947236352E0,1.194587350E-2,1.643638611E-1,-1.893329620E-1,2.510082732E-1
2.957235052E0,3.040317446E-3,4.673528671E-1,-2.249596715E-1,5.186856464E-1
2.967233818E0,2.191152424E-3,7.176256180E-1,-2.558554411E-1,7.618748818E-1
2.977232584E0,1.670161635E-2,9.224386215E-1,-2.960613370E-1,9.689294452E-1
2.987231350E0,1.123772562E-2,1.096131325E0,-3.262465000E-1,1.143707544E0
2.997230116E0,6.437011063E-2,1.348866463E0,-3.559899926E-1,1.396536115E0
3.007228849E0,6.333784014E-2,1.683039665E0,-3.683058619E-1,1.724031150E0
3.017227582E0,7.512918115E-2,1.911905766E0,-4.111884236E-1,1.957065142E0
3.027226315E0,8.502221107E-2,2.080965519E0,-4.437087774E-1,2.129442121E0
3.037224981E0,1.239084154E-1,2.245278835E0,-4.636953473E-1,2.296006036E0
3.047223714E0,1.340387613E-1,2.309106827E0,-4.779332876E-1,2.361855405E0
3.057222447E0,1.341290772E-1,2.392190456E0,-4.935710430E-1,2.446257992E0
3.067221147E0,1.696346104E-1,2.511263847E0,-5.203390121E-1,2.570209077E0
3.077219880E0,1.517258137E-1,2.640003681E0,-5.102373362E-1,2.693136146E0
3.087218613E0,1.635525972E-1,2.687488556E0,-5.468268394E-1,2.747428576E0
3.097217346E0,1.767381579E-1,2.682329178E0,-5.446376801E-1,2.742764371E0
3.107216079E0,1.788612902E-1,2.630639553E0,-4.942829907E-1,2.682642633E0
3.117214845E0,1.681863070E-1,2.501110554E0,-4.794351459E-1,2.552194878E0
3.127213611E0,1.681999713E-1,2.431478024E0,-4.787174463E-1,2.483857283E0
3.137212377E0,1.694993675E-1,2.357106686E0,-4.632867575E-1,2.408177025E0
3.147211077E0,1.527356505E-1,2.301939487E0,-4.546878934E-1,2.351381437E0
3.157209843E0,1.656142771E-1,2.136650562E0,-4.674833417E-1,2.193454898E0
3.167560190E0,1.486781836E-1,1.966638565E0,-4.033587575E-1,2.013074945E0
3.177558890E0,1.425152123E-1,1.715303421E0,-4.392700791E-1,1.776382452E0
3.187557656E0,1.253345758E-1,1.406617165E0,-3.926530480E-1,1.465761584E0
3.197556422E0,1.148527786E-1,1.193773270E0,-3.764758110E-1,1.256988391E0
3.207555122E0,1.135500222E-1,1.007363319E0,-3.714110851E-1,1.079639134E0
3.217553888E0,8.101443946E-2,7.827100754E-1,-3.202089071E-1,8.495482009E-1
3.227552654E0,9.171900898E-2,5.078153610E-1,-3.401501775E-1,6.180541730E-1
3.237551420E0,8.116853982E-2,2.569494247E-1,-2.756711841E-1,3.854944104E-1
3.247550186E0,6.408464164E-2,-8.967018127E-2,-2.441889048E-1,2.679100668E-1
3.257548952E0,5.726290494E-2,-4.122905731E-1,-2.312322855E-1,4.761627105E-1
3.267547718E0,4.651216045E-2,-6.438961029E-1,-2.178874612E-1,6.813519782E-1
3.277546484E0,5.574388057E-2,-8.156023026E-1,-1.823731065E-1,8.376004096E-1
3.287545184E0,5.620718747E-2,-1.018385887E0,-1.510996819E-1,1.031067494E0
3.297543950E0,5.526815355E-2,-1.290541649E0,-1.381555200E-1,1.299091707E0
3.307542716E0,5.236124992E-2,-1.519579887E0,-9.390920401E-2,1.523379031E0
3.317541416E0,6.177644059E-2,-1.791749001E0,-6.894248724E-2,1.794138756E0
3.327540182E0,5.438084900E-2,-1.975358963E0,-6.811994314E-2,1.977281122E0
3.337538948E0,7.092274725E-2,-2.094382286E0,-4.161918163E-2,2.095996029E0
3.347537714E0,5.006130412E-2,-2.147104263E0,-1.158726215E-2,2.147719050E0
3.357536480E0,5.091550946E-2,-2.226504326E0,2.000904083E-2,2.227176298E0
3.367535246E0,5.173289031E-2,-2.349336624E0,4.601848125E-2,2.350356689E0
3.377534046E0,3.542414308E-2,-2.426966667E0,5.710697174E-2,2.427896884E0
3.387532946E0,4.986395687E-2,-2.523984909E0,5.381053686E-2,2.525050853E0
3.397531846E0,3.436835483E-2,-2.539739609E0,6.551820040E-2,2.540817014E0
3.407530812E0,2.305719629E-2,-2.423945427E0,7.121878862E-2,2.425101067E0
3.417529778E0,1.368701831E-2,-2.423178673E0,8.082085848E-2,2.424564750E0
3.427528711E0,-2.218150906E-2,-2.276426315E0,7.985717058E-2,2.277934581E0
3.437527711E0,-2.175510116E-2,-2.213578224E0,1.091227531E-1,2.216373077E0
3.447526777E0,-6.858254224E-2,-2.120188713E0,9.761130810E-2,2.123542256E0
3.457525777E0,-6.515534222E-2,-2.019629478E0,9.792178869E-2,2.023051439E0
3.467524843E0,-4.947561398E-2,-1.818499565E0,6.504839659E-2,1.820335079E0
3.477523909E0,-8.356215060E-2,-1.535947800E0,4.929685593E-2,1.539008920E0
3.487522975E0,-8.336107433E-2,-1.298855782E0,1.960992813E-2,1.301675827E0
3.497522041E0,-1.015218794E-1,-1.095239639E0,1.936918497E-2,1.100105324E0
3.507521107E0,-1.016116813E-1,-8.772115707E-1,1.231199503E-2,8.831628722E-1
3.517520173E0,-8.652012795E-2,-6.663732529E-1,5.398929119E-3,6.719882388E-1
3.527519239E0,-1.137270629E-1,-4.315471649E-1,-3.582298756E-3,4.462954551E-1
3.537518239E0,-1.044300944E-1,-1.392507553E-1,-2.714395523E-3,1.740798248E-1
3.547517305E0,-1.093468741E-1,1.869449615E-1,-3.683125973E-2,2.196854552E-1
3.557516371E0,-8.566299826E-2,4.986495972E-1,-4.101949930E-2,5.076141934E-1
3.567515371E0,-8.629947156E-2,7.192935944E-1,-5.123198032E-2,7.262613782E-1
3.577514437E0,-6.111768261E-2,9.805374146E-1,-8.418220282E-2,9.860403824E-1
3.587513503E0,-5.353986844E-2,1.162696838E0,-1.084267497E-1,1.168968270E0
3.597512569E0,-4.945347458E-2,1.383126259E0,-1.018705368E-1,1.387754121E0
3.607511635E0,-3.443001956E-2,1.684876442E0,-1.274988055E-1,1.690044377E0
3.617510701E0,-3.270831332E-2,1.933901310E0,-1.392323971E-1,1.939182758E0
3.627509767E0,-2.252594009E-2,2.111040115E0,-1.707305312E-1,2.118052573E0
3.637508833E0,-2.069309726E-2,2.245086193E0,-1.832138896E-1,2.252644568E0
3.647507833E0,-3.666267544E-2,2.340854168E0,-1.952834725E-1,2.349271807E0
3.657506899E0,-5.074914172E-2,2.405493259E0,-1.975083947E-1,2.414121551E0
3.667505932E0,-4.567322880E-2,2.498901367E0,-1.993447542E-1,2.507255954E0
3.677504898E0,-5.002067983E-2,2.637826443E0,-2.008388638E-1,2.645933986E0
3.687503831E0,-6.378945708E-2,2.697755814E0,-2.044616938E-1,2.706244651E0
3.697502697E0,-4.813516140E-2,2.657143593E0,-2.078762054E-1,2.665697204E0
3.707501497E0,-7.766696066E-2,2.595051765E0,-2.151876688E-1,2.605116419E0
3.717500330E0,-7.279686630E-2,2.513870716E0,-2.120043635E-1,2.523844530E0
3.727499130E0,-8.618402481E-2,2.408856392E0,-1.885256767E-1,2.417759031E0
3.737497930E0,-7.217822969E-2,2.318225861E0,-1.932531595E-1,2.327386436E0
3.747496663E0,-6.467925012E-2,2.263588428E0,-1.540511250E-1,2.269746181E0
3.757495396E0,-6.615385413E-2,2.129931450E0,-1.435735226E-1,2.135789706E0
3.767494129E0,-7.893230021E-2,1.907686710E0,-9.953820705E-2,1.911911804E0
3.777492862E0,-7.377068698E-2,1.699795723E0,-8.703535795E-2,1.703620488E0
3.787491528E0,-5.198489130E-2,1.417829514E0,-3.580760956E-2,1.419233999E0
3.797490261E0,-6.477993727E-2,1.186143875E0,-2.273690701E-2,1.188129075E0
3.807488994E0,-5.971059203E-2,1.009564400E0,7.225215435E-3,1.011354456E0
3.817487660E0,-4.806114361E-2,8.161792755E-1,1.771235466E-2,8.177849417E-1
3.827486393E0,-3.557816520E-2,5.724887848E-1,3.957176208E-2,5.749566409E-1
3.837485159E0,-3.224851191E-2,2.305555344E-1,7.984590530E-2,2.461121483E-1
3.847483925E0,-2.148702554E-2,-3.720760345E-2,1.169358492E-1,1.245796566E-1
3.857482691E0,-1.306574512E-2,-3.744611740E-1,1.220821738E-1,3.940760608E-1
3.867481457E0,-1.173551939E-2,-6.040554047E-1,1.714574695E-1,6.280273228E-1
3.877480223E0,3.802826628E-3,-7.618904114E-1,1.576146483E-1,7.780320288E-1
3.887478989E0,1.208206825E-2,-9.916296005E-1,1.832877398E-1,1.008498704E0
3.897477689E0,-3.772577271E-3,-1.245397568E0,1.959022284E-1,1.260716866E0
3.907476455E0,3.863689490E-3,-1.480044365E0,1.980633736E-1,1.493243232E0
3.917475221E0,1.411691308E-3,-1.733952522E0,2.202641964E-1,1.747887198E0
3.927473921E0,-1.407675445E-3,-1.935234070E0,2.179296613E-1,1.947466617E0
3.937472687E0,9.803380817E-3,-2.076689720E0,2.149507403E-1,2.087807491E0
3.947471453E0,1.597688347E-2,-2.131967545E0,2.262217402E-1,2.143995603E0
3.957470153E0,2.673347294E-2,-2.235143661E0,2.038508654E-1,2.244579480E0
3.967468919E0,1.352510415E-2,-2.369402885E0,2.226840854E-1,2.379882595E0
3.977467685E0,2.958849072E-3,-2.462956429E0,2.177892327E-1,2.472568558E0
3.987466451E0,4.765532911E-3,-2.522977829E0,2.250747681E-1,2.533001873E0
3.997465217E0,1.922309771E-2,-2.525518417E0,2.496258020E-1,2.537897919E0
4.007463983E0,2.230812982E-2,-2.484949112E0,2.289420366E-1,2.495572920E0
4.017462749E0,2.650141716E-2,-2.339015007E0,2.421943545E-1,2.351669967E0
4.027461515E0,3.374393284E-2,-2.262525558E0,2.407788634E-1,2.275551585E0
4.037460215E0,5.768222362E-2,-2.207989693E0,2.355196476E-1,2.221264331E0
4.047458981E0,3.865801543E-2,-2.117538452E0,2.062340379E-1,2.127908837E0
4.057457747E0,3.915186226E-2,-1.976820946E0,2.008435130E-1,1.987383213E0
4.067456447E0,6.386610121E-2,-1.819369316E0,1.832938790E-1,1.829694027E0
4.077455213E0,6.434036791E-2,-1.532635689E0,1.799665689E-1,1.544506330E0
4.087453979E0,8.618921787E-2,-1.269912720E0,1.424497962E-1,1.280780559E0
4.097452745E0,8.591821790E-2,-1.040732384E0,1.140348911E-1,1.050480743E0
4.107451511E0,9.471052140E-2,-8.690700531E-1,8.983939886E-2,8.788196389E-1
4.117450277E0,9.331841022E-2,-6.375703812E-1,4.615938663E-2,6.460147100E-1
4.127449043E0,1.054122448E-1,-3.869409561E-1,2.619367838E-2,4.018969441E-1
4.137447776E0,1.138503999E-1,-3.879175186E-1,1.423203945E-2,4.045299318E-1
4.147446442E0,1.287039071E-1,2.431068420E-1,-6.079596281E-2,2.817122316E-1
4.157445175E0,1.285195649E-1,5.125722885E-1,-1.097463965E-1,5.397146478E-1
4.167443908E0,1.396528035E-1,7.149620056E-1,-1.398097277E-1,7.417683836E-1
4.177442574E0,1.405700594E-1,9.484376907E-1,-1.677355170E-1,9.733597477E-1
4.187441307E0,1.481581032E-1,1.141231537E0,-2.264196277E-1,1.172870876E0
4.197440040E0,1.340410262E-1,1.369954109E0,-2.032025456E-1,1.391413861E0
4.207438706E0,1.364661306E-1,1.651374817E0,-2.752180696E-1,1.679704372E0
4.217437439E0,1.509160995E-1,1.894546032E0,-2.891294360E-1,1.922414151E0
4.227436172E0,1.821181029E-1,2.109037876E0,-2.948057055E-1,2.137315646E0
4.237434905E0,1.702710837E-1,2.191912174E0,-3.475816846E-1,2.225822151E0
4.247433671E0,1.704673320E-1,2.279655457E0,-3.419698477E-1,2.311456573E0
4.257432437E0,1.555935144E-1,2.402877331E0,-3.410770893E-1,2.431946214E0
4.267431203E0,1.420658529E-1,2.494928837E0,-3.330658078E-1,2.521068313E0
4.277429969E0,1.440702677E-1,2.603686810E0,-3.253901005E-1,2.627892685E0
4.287428669E0,1.517589837E-1,2.664491653E0,-3.132555485E-1,2.687131482E0
4.297427435E0,1.238951162E-1,2.672532082E0,-3.113875389E-1,2.693462442E0
4.307426201E0,1.208314896E-1,2.589568615E0,-3.120698929E-1,2.611101966E0
4.317424901E0,1.283689737E-1,2.510262966E0,-3.029705286E-1,2.531736537E0
4.327423667E0,1.213420630E-1,2.414256573E0,-2.764628530E-1,2.433061940E0
4.337422433E0,1.403193027E-1,2.335092068E0,-2.848081589E-1,2.356578061E0
4.347421199E0,1.636615992E-1,2.258360863E0,-2.782653570E-1,2.281317714E0
4.357419965E0,1.673353314E-1,2.152964115E0,-2.832507491E-1,2.177954678E0
4.367418731E0,1.606972069E-1,1.942244053E0,-2.733182907E-1,1.967952855E0
4.377417497E0,1.601552814E-1,1.698098183E0,-2.483941317E-1,1.723626061E0
4.387416263E0,1.633003652E-1,1.453997612E0,-2.299702764E-1,1.481101750E0
4.397414963E0,1.581134647E-1,1.241117477E0,-2.228626609E-1,1.270842329E0
4.407413729E0,1.514611691E-1,9.995594025E-1,-1.959503889E-1,1.029784463E0
4.417412495E0,1.485037804E-1,9.999008179E-1,-1.923281550E-1,1.029002010E0
4.427411195E0,1.371655911E-1,5.765247345E-1,-1.545322537E-1,6.124339853E-1
4.437409961E0,1.388258487E-1,2.562141418E-1,-1.107052565E-1,3.117273754E-1
4.447408727E0,1.251814365E-1,-5.207920074E-2,-9.736925364E-2,1.669233559E-1
4.457407493E0,9.667071700E-2,-3.172149658E-1,-8.086150885E-2,3.413343605E-1
4.467406293E0,8.452157676E-2,-5.942840576E-1,-2.789384127E-2,6.009122269E-1
4.477405126E0,7.443293929E-2,-7.970867157E-1,-2.718240023E-2,8.010158411E-1
4.487403959E0,7.612893730E-2,-9.974975586E-1,7.465004921E-3,1.000426270E0
4.497402859E0,4.672303051E-2,-1.226601601E0,4.744333029E-2,1.228407668E0
4.507401759E0,3.901552409E-2,-1.520368576E0,8.740365505E-2,1.523378553E0
4.517400659E0,2.929484844E-2,-1.761464119E0,1.225999594E-1,1.765968511E0
4.527399559E0,1.292355731E-2,-1.952321053E0,1.170712113E-1,1.955870696E0
4.537398392E0,6.122887135E-5,-2.104915619E0,1.421843171E-1,2.109712337E0
4.547397258E0,-2.457402647E-3,-2.171353340E0,1.883944869E-1,2.179512296E0
4.557396124E0,-4.083469510E-3,-2.223489761E0,1.838093400E-1,2.231078050E0
4.567394924E0,1.054389775E-2,-2.345230103E0,2.031228542E-1,2.354033624E0
4.577393790E0,2.083966509E-3,-2.464676857E0,2.066051364E-1,2.473322064E0
4.587392656E0,1.079458464E-2,-2.495632172E0,1.969134212E-1,2.503411943E0
4.597391522E0,9.996494278E-3,-2.502696991E0,1.960805058E-1,2.510386369E0
4.607390388E0,-3.104103729E-3,-2.447566986E0,1.849781871E-1,2.454548984E0
4.617389254E0,3.150046989E-2,-2.330173492E0,1.882983446E-1,2.337981405E0
4.627388120E0,2.910480369E-3,-2.210407257E0,1.698051095E-1,2.216921850E0
4.637386986E0,3.117693122E-4,-2.162477493E0,1.704548001E-1,2.169185065E0
4.647385786E0,-7.370091043E-4,-2.104958534E0,1.520756483E-1,2.110444971E0
4.657384652E0,-1.642645337E-2,-1.968404770E0,1.413113475E-1,1.973538969E0
4.667383518E0,-2.247596346E-2,-1.769572258E0,1.403667927E-1,1.775272932E0
4.677382318E0,-1.887413859E-2,-1.522873878E0,1.467164755E-1,1.530041440E0
4.687381184E0,-4.150880128E-2,-1.283370018E0,1.217752695E-1,1.289802621E0
4.697380050E0,-4.940371960E-2,-1.024713516E0,9.656095505E-2,1.030438031E0
4.707378916E0,-7.125511765E-2,-8.618412018E-1,1.002120972E-1,8.705687872E-1
4.717377782E0,-6.594707817E-2,-6.870164871E-1,7.954466343E-2,6.947431354E-1
4.727376648E0,-6.697225571E-2,-3.972663879E-1,6.849336624E-2,4.086529178E-1
4.737375514E0,-6.253697723E-2,-1.242733002E-1,5.254036188E-2,1.487118566E-1
4.747374380E0,-5.269530416E-2,2.181482315E-1,2.458679676E-2,2.257652687E-1
4.757373180E0,-6.903371960E-2,4.983072281E-1,1.791644096E-2,5.033852867E-1
4.767372013E0,-5.863646418E-2,7.425260544E-1,-8.227109909E-3,7.448831195E-1
4.777370813E0,-6.731741875E-2,9.292716980E-1,-1.310527325E-2,9.317989438E-1
4.787369546E0,-8.035174012E-2,1.118358612E0,-4.019707441E-2,1.121961761E0
4.797368279E0,-6.378295273E-2,1.384046555E0,-3.163659573E-2,1.385876619E0
4.807367012E0,-5.614771321E-2,1.628144264E0,-5.499035120E-2,1.630039953E0
4.817365678E0,-5.510872602E-2,1.864990234E0,-1.007410288E-1,1.868521956E0
4.827364411E0,-6.541187316E-2,2.106641293E0,-1.153492928E-1,2.110810676E0
4.837363144E0,-3.205255046E-2,2.209414005E0,-1.397946477E-1,2.214064172E0
4.847361877E0,-3.463131189E-2,2.278681755E0,-1.541960835E-1,2.284155490E0
4.857360610E0,-2.569171041E-2,2.403071404E0,-1.559839845E-1,2.408265608E0
4.867359376E0,-2.463080361E-2,2.493969917E0,-1.596362591E-1,2.499195142E0
4.877358142E0,-1.693184674E-2,2.587301254E0,-1.914871931E-1,2.594432850E0
4.887356908E0,-3.857442737E-2,2.673516750E0,-1.624151468E-1,2.678723293E0
4.897355608E0,-5.514584109E-2,2.678331375E0,-1.810551286E-1,2.685010424E0
4.907354374E0,-5.441314355E-2,2.678389549E0,-1.802845597E-1,2.685001656E0
4.917353140E0,-4.366056994E-2,2.479780674E0,-1.645287871E-1,2.485616253E0
4.927351840E0,-3.492350131E-2,2.398496628E0,-1.411843896E-1,2.402902153E0
4.937350606E0,-3.562354296E-2,2.348356247E0,-1.466326118E-1,2.353199359E0
4.947349372E0,-3.628003225E-2,2.233572960E0,-1.398302913E-1,2.238239692E0
4.957348138E0,-2.698065341E-2,2.133212090E0,-1.395728588E-1,2.137943488E0
4.967346904E0,-1.777538285E-2,1.949061394E0,-1.031264663E-1,1.951868681E0
4.977345670E0,-1.605045795E-2,1.671535492E0,-7.161241770E-2,1.673145797E0
4.987344436E0,-3.601253778E-2,1.432251930E0,-3.815549612E-2,1.433212593E0
4.997343202E0,-4.132840037E-2,1.233657837E0,-2.923429012E-2,1.234696051E0
5.007341902E0,-3.172858059E-2,9.847602844E-1,-2.303308249E-2,9.855404829E-1
5.017340668E0,-4.082790762E-2,8.004713058E-1,2.345430851E-2,8.018549333E-1
5.027339434E0,-3.982318565E-2,5.706357956E-1,4.262709618E-2,5.736097686E-1
5.037338134E0,-2.841894329E-2,2.401590347E-1,7.738852501E-2,2.539153050E-1
5.047336900E0,-1.660816744E-2,-8.083820343E-2,7.264637947E-2,1.099460905E-1
5.057335666E0,-3.031520545E-2,-3.683900833E-1,8.826363087E-2,3.800272802E-1
5.067334366E0,-7.431246340E-3,-5.769681931E-1,1.057146192E-1,5.866200644E-1
5.077333132E0,-1.265124884E-3,-7.927904129E-1,1.153288484E-1,8.011360575E-1
5.087331898E0,1.954492182E-4,-1.006239891E0,1.028965712E-1,1.011487252E0
5.097330664E0,-8.802898228E-4,-1.229290962E0,1.192905307E-1,1.235065697E0
5.107329430E0,1.855805889E-2,-1.476017952E0,1.418031454E-1,1.482930048E0
5.117328196E0,2.150682732E-2,-1.749156952E0,1.419332623E-1,1.755037788E0
5.127326962E0,2.949811891E-2,-1.926581383E0,1.533043981E-1,1.932896325E0
5.137325728E0,1.862425730E-2,-2.056144714E0,1.451476812E-1,2.061345628E0
5.147324428E0,4.162913561E-2,-2.149859428E0,1.411546469E-1,2.154890526E0
5.157323194E0,5.264569074E-2,-2.219656944E0,1.417326331E-1,2.224800364E0
5.167321927E0,7.807086408E-2,-2.320624352E0,1.441655159E-1,2.326408420E0
5.177320593E0,7.688107342E-2,-2.443170547E0,1.559531093E-1,2.449349790E0
5.187319326E0,8.242197335E-2,-2.505865097E0,1.508460045E-1,2.511753926E0
5.197318059E0,9.462138265E-2,-2.484787941E0,9.299784899E-2,2.488327333E0
5.207316792E0,1.086378545E-1,-2.430154800E0,1.550642252E-1,2.437519118E0
5.217315525E0,7.908625156E-2,-2.349199295E0,1.262642741E-1,2.353918994E0
5.227314258E0,8.758614957E-2,-2.251463890E0,1.142341495E-1,2.256060820E0
5.237312991E0,8.476415277E-2,-2.172392845E0,1.453420520E-1,2.178898792E0
5.247311724E0,8.269676566E-2,-2.131708145E0,1.061320305E-1,2.135949995E0
5.257310390E0,9.089475870E-2,-1.980925560E0,1.216023564E-1,1.986734775E0
5.267309123E0,8.789557964E-2,-1.779971123E0,1.024220586E-1,1.785080701E0
5.277307889E0,7.583923638E-2,-1.555126190E0,9.438723326E-2,1.559832686E0
5.287306589E0,6.699548662E-2,-1.330376625E0,7.098120451E-2,1.333952282E0
5.297305355E0,7.309694588E-2,-1.031463623E0,4.451197386E-2,1.035008060E0
5.307304121E0,7.736206055E-2,-8.642969131E-1,2.220565081E-2,8.680363664E-1
5.317302821E0,8.915369213E-2,-6.636533737E-1,4.185676575E-3,6.696280319E-1
5.327301587E0,7.971073687E-2,-4.342994690E-1,-3.318029642E-2,4.427987832E-1
5.337300353E0,8.736293018E-2,-1.426858902E-1,-5.838018656E-2,1.771998618E-1
5.347299119E0,1.066506952E-1,1.769084930E-1,-1.081220508E-1,2.331552349E-1
5.357297885E0,1.093153134E-1,4.725103378E-1,-1.414241791E-1,5.051897223E-1
5.367296651E0,1.311350018E-1,7.081813812E-1,-1.969117522E-1,7.466535311E-1
5.377295417E0,1.337958276E-1,9.246311188E-1,-2.335348725E-1,9.630070436E-1
5.387294183E0,1.505750269E-1,1.085982323E0,-2.582382560E-1,1.126373580E0
5.397292883E0,1.719449461E-1,1.379008293E0,-2.874575257E-1,1.419105622E0
5.407291649E0,1.976910084E-1,1.643309593E0,-3.212168813E-1,1.686039276E0
5.417290415E0,1.968063414E-1,1.852555752E0,-3.784320354E-1,1.901027710E0
5.427289115E0,2.147374153E-1,2.085799694E0,-3.846225142E-1,2.131808387E0
5.437287881E0,1.836414337E-1,2.194780827E0,-3.951816559E-1,2.237622755E0
5.447286647E0,1.747363210E-1,2.270213604E0,-3.817288280E-1,2.308705154E0
5.457285413E0,1.759375930E-1,2.350405216E0,-3.849470019E-1,2.388209143E0
5.467284179E0,1.558770835E-1,2.502419472E0,-3.760904670E-1,2.535319490E0
5.477282945E0,1.478168964E-1,2.582603455E0,-3.739386797E-1,2.613717769E0
5.487281711E0,1.497201622E-1,2.648395538E0,-3.431597948E-1,2.674728715E0
5.497280477E0,1.397073120E-1,2.649461746E0,-3.370040059E-1,2.674460203E0
5.507279210E0,1.249091178E-1,2.597782135E0,-3.456679881E-1,2.623654068E0
5.517278010E0,1.183282733E-1,2.492003918E0,-3.384180665E-1,2.517660004E0
5.527276910E0,1.280175298E-1,2.388713360E0,-3.300651908E-1,2.414804968E0
5.537275810E0,1.203620508E-1,2.352551460E0,-3.135759830E-1,2.376408065E0
5.547274776E0,1.361068785E-1,2.254240990E0,-3.174284697E-1,2.280545627E0
5.557273776E0,1.345116347E-1,2.110554218E0,-3.105354309E-1,2.137513682E0
5.567272742E0,1.419934481E-1,1.928637981E0,-3.074766994E-1,1.958149260E0
5.577271742E0,1.294550896E-1,1.672673225E0,-2.691541910E-1,1.699128694E0
5.587270808E0,1.281384528E-1,1.411979675E0,-2.467806339E-1,1.439099284E0
5.597269874E0,1.117912680E-1,1.223238945E0,-2.424122095E-1,1.252028148E0
5.607268940E0,1.091208905E-1,1.032176018E0,-1.987550855E-1,1.056786773E0
5.617268006E0,1.176611185E-1,8.052825928E-1,-1.565921307E-1,8.287612976E-1
5.627267072E0,1.087964028E-1,5.592756271E-1,-1.497240067E-1,5.891036942E-1
5.637266138E0,9.720219672E-2,2.750349045E-1,-1.205779314E-1,3.156445838E-1
5.647265138E0,7.573511451E-2,-4.508018494E-2,-7.640498877E-2,1.166437009E-1
5.657264204E0,8.755612373E-2,-3.555965424E-1,-3.898268938E-2,3.682860652E-1
5.667263270E0,7.541158050E-2,-5.559368134E-1,-3.697478771E-2,5.622453040E-1
5.677262270E0,6.319690496E-2,-7.370958328E-1,-1.055115461E-2,7.398752884E-1
5.687261336E0,6.009520963E-2,-9.996538162E-1,1.626801491E-2,1.001590652E0
5.697260402E0,5.420293659E-2,-1.204744339E0,4.320049286E-2,1.206736576E0
5.707259468E0,4.780651256E-2,-1.464888573E0,8.474528790E-2,1.468116398E0
5.717258534E0,4.339139909E-2,-1.710709572E0,1.092835665E-1,1.714745739E0
5.727257600E0,3.130538762E-2,-1.920633316E0,1.383224130E-1,1.925862262E0
5.737256666E0,1.664681733E-2,-2.020466805E0,1.383757591E-1,2.025268149E0
5.747255732E0,-5.255656317E-3,-2.129912376E0,1.691886187E-1,2.136627984E0
5.757254732E0,-1.851655729E-2,-2.227575302E0,1.857466698E-1,2.235382834E0
5.767253798E0,-6.449395791E-3,-2.322939873E0,1.914577484E-1,2.330825458E0
5.777252864E0,-7.813231088E-3,-2.415968895E0,1.988084912E-1,2.424147595E0
5.787251864E0,-3.243972361E-2,-2.489946365E0,2.071231604E-1,2.498756739E0
5.797250930E0,-2.984364331E-2,-2.489738464E0,2.101933360E-1,2.498773600E0
5.807249963E0,-2.211385220E-2,-2.403345108E0,2.058543563E-1,2.412246411E0
5.817248929E0,-4.056618363E-2,-2.328948975E0,2.061347365E-1,2.338405540E0
5.827247862E0,-2.762435935E-2,-2.252165794E0,1.894800663E-1,2.260291257E0
5.837246728E0,-3.618512303E-2,-2.165831566E0,2.037449479E-1,2.175694771E0
5.847245594E0,-4.932078719E-2,-2.089093208E0,1.985549927E-1,2.099087196E0
5.857244427E0,-5.238280818E-2,-1.986027718E0,1.809504628E-1,1.994941885E0
5.867243227E0,-6.698569655E-2,-1.756077766E0,1.706942320E-1,1.765625307E0
5.877242027E0,-4.487221316E-2,-1.509366035E0,1.436793804E-1,1.516853028E0
5.887240760E0,-4.406052828E-2,-1.274622917E0,1.453081369E-1,1.283635215E0
5.897239426E0,-4.082651809E-2,-1.063841820E0,1.227502227E-1,1.071678048E0
5.907238159E0,-3.281155229E-2,-8.506727219E-1,1.239650249E-1,8.602836771E-1
5.917236892E0,-3.937119991E-2,-6.351222992E-1,9.623783827E-2,6.435776160E-1
5.927235558E0,-4.368095845E-2,-4.219961166E-1,7.555532455E-2,4.309261603E-1
5.937234291E0,-2.436360158E-2,-1.010951996E-1,6.943076849E-2,1.250378186E-1
5.947233024E0,-3.209142014E-2,2.149791718E-1,5.567371845E-2,2.243779545E-1
5.957231757E0,-3.592676297E-2,4.663763046E-1,5.119282007E-2,4.705510542E-1
5.967230490E0,-4.508811980E-2,7.273044586E-1,1.741737127E-2,7.289088276E-1
5.977229223E0,-5.464315042E-2,9.403333664E-1,1.685142517E-2,9.420704243E-1
5.987227956E0,-8.560842276E-2,1.098230362E0,-8.428573608E-3,1.101594195E0
5.997226722E0,-7.454473525E-2,1.347107887E0,-1.715481281E-2,1.349277905E0
6.007225422E0,-9.107720852E-2,1.612721443E0,-4.071891308E-2,1.615804302E0
6.017224188E0,-6.557050347E-2,1.871145248E0,-6.460803747E-2,1.873408186E0
6.027222954E0,-6.329166144E-2,2.048135757E0,-9.597831964E-2,2.051359976E0
6.037221654E0,-6.074570864E-2,2.177269936E0,-1.150875688E-1,2.181155557E0
6.047220420E0,-5.098302662E-2,2.282489300E0,-1.171798706E-1,2.286063821E0
6.057219186E0,-7.251717895E-2,2.342231750E0,-1.210569143E-1,2.346478871E0
6.067217886E0,-7.472440600E-2,2.423556328E0,-1.198139191E-1,2.427666449E0
6.077216652E0,-1.004386246E-1,2.569569588E0,-1.396453977E-1,2.575320683E0
6.087215418E0,-6.516842544E-2,2.622240067E0,-1.327305436E-1,2.626405774E0
6.097214184E0,-8.860036731E-2,2.603085041E0,-1.400637627E-1,2.608355730E0
6.107212950E0,-8.699359000E-2,2.571977139E0,-1.427069306E-1,2.577401706E0
6.117211716E0,-7.957038283E-2,2.473818779E0,-1.214643121E-1,2.478076749E0
6.127210482E0,-4.760645702E-2,2.363693714E0,-1.100006104E-1,2.366730759E0
6.137209248E0,-4.812171310E-2,2.313763618E0,-1.167910099E-1,2.317209080E0
6.147207948E0,-3.611264005E-2,2.247070312E0,-1.020863652E-1,2.249677919E0
6.157206714E0,-5.959010869E-2,2.110936165E0,-9.693276882E-2,2.114000576E0
6.167205480E0,-4.453033954E-2,1.938899517E0,-3.214514256E-2,1.939677189E0
6.177204180E0,-5.108509585E-2,1.671058655E0,-5.602538586E-2,1.672777797E0
6.187202946E0,-4.790785164E-2,1.436741829E0,-2.717733383E-2,1.437797222E0
6.197201712E0,-6.377024204E-2,1.190451622E0,3.271782398E-2,1.192607297E0
6.207200478E0,-4.798040912E-2,1.013591766E0,2.073180676E-2,1.014938518E0
6.217199244E0,-5.798545107E-2,8.127593994E-1,7.056075335E-2,8.178746688E-1
6.227198010E0,-4.838387296E-2,5.304737091E-1,9.333342314E-2,5.407906093E-1
6.237196776E0,-4.549136758E-2,2.577037811E-1,8.629101515E-2,2.755482583E-1
6.247195542E0,-5.409180373E-2,-1.512527466E-2,1.166037321E-1,1.294261469E-1
6.257194242E0,-4.562573507E-2,-3.311185837E-1,1.172305346E-1,3.542092918E-1
6.267193008E0,-2.612484246E-2,-5.664768219E-1,1.319727302E-1,5.822330278E-1
6.277191774E0,-3.598185256E-2,-7.586975098E-1,1.450623870E-1,7.732785405E-1
6.287190474E0,-4.363777488E-2,-9.916200638E-1,1.347964406E-1,1.001690914E0
6.297189207E0,-3.201236576E-2,-1.226859093E0,1.495040655E-1,1.236349259E0
6.307187940E0,-2.709661052E-2,-1.483629227E0,1.815488935E-1,1.494941440E0
6.317186606E0,-4.578370228E-2,-1.704483032E0,1.850431561E-1,1.715109187E0
6.327185339E0,-4.450550303E-3,-1.910636902E0,1.793036461E-1,1.919036992E0
6.337184072E0,-3.260169178E-4,-2.025856018E0,1.991983056E-1,2.035625869E0
6.347182805E0,9.375875816E-3,-2.105211258E0,1.707387567E-1,2.112144425E0
6.357181538E0,2.187361196E-2,-2.206189156E0,1.775387526E-1,2.213429252E0
6.367180271E0,2.240611240E-2,-2.304820061E0,1.789181232E-1,2.311862721E0
6.377179004E0,3.727415577E-2,-2.398694992E0,1.750510335E-1,2.405362736E0
6.387177737E0,6.172485277E-2,-2.459124565E0,1.634171009E-1,2.465321223E0
6.397176437E0,4.785253853E-2,-2.500443459E0,1.488539577E-1,2.505327295E0
6.407175203E0,7.709997147E-2,-2.405342102E0,1.388470531E-1,2.410579502E0
6.417173969E0,7.279190421E-2,-2.293476105E0,1.336107850E-1,2.298517598E0
6.427172669E0,1.089217141E-1,-2.234338760E0,1.183271408E-1,2.240119405E0
6.437171435E0,1.079075634E-1,-2.146078110E0,1.330097318E-1,2.152901968E0
6.447170201E0,1.016092002E-1,-2.062650681E0,1.111225486E-1,2.068139376E0
6.457168967E0,1.022043154E-1,-1.955320358E0,1.007937193E-1,1.960582260E0
6.467167733E0,1.150955036E-1,-1.774386406E0,7.212215662E-2,1.779577393E0
6.477166499E0,1.156172603E-1,-1.533667564E0,5.460286140E-2,1.538988311E0
6.487165265E0,1.325608045E-1,-1.264301300E0,5.201458931E-3,1.271242384E0
6.497164031E0,1.277752519E-1,-1.074015617E0,-1.553356647E-3,1.081590715E0
6.507162731E0,1.326337308E-1,-8.766078949E-1,-3.772658110E-2,8.873874029E-1
6.517161497E0,1.428529918E-1,-6.601438522E-1,-7.186222076E-2,6.792356452E-1
6.527160263E0,1.583547294E-1,-4.508838654E-1,-1.252746582E-1,4.940305865E-1
6.537158963E0,1.838611364E-1,-1.411066055E-1,-1.379699707E-1,2.697252388E-1
6.547157729E0,1.928911209E-1,-1.426591873E-1,-1.533685923E-1,2.847464720E-1
6.557156495E0,1.855931580E-1,1.669845581E-1,-1.833675504E-1,3.097617173E-1
6.567155195E0,2.074604779E-1,6.705017090E-1,-2.614986897E-1,7.489952979E-1
6.577153961E0,2.151100487E-1,8.866310120E-1,-3.040671945E-1,9.616879656E-1
6.587152727E0,2.254020125E-1,1.076361656E0,-3.372555375E-1,1.150261614E0
6.597151493E0,2.478240728E-1,1.306778908E0,-3.678392172E-1,1.379997672E0
6.607150293E0,2.246726006E-1,1.576329231E0,-3.710832596E-1,1.634929481E0
6.617149126E0,2.269263864E-1,1.872148037E0,-3.841724992E-1,1.924583686E0
6.627147959E0,2.158181369E-1,1.873393536E0,-3.736507893E-1,1.922445245E0
6.637146859E0,2.128019184E-1,2.147508144E0,-3.849291801E-1,2.192087216E0
6.647145692E0,2.124523818E-1,2.258763313E0,-3.821406960E-1,2.300691033E0
6.657144592E0,1.786507815E-1,2.341250420E0,-3.892511725E-1,2.380102121E0
6.667143492E0,1.979671866E-1,2.461983204E0,-3.965640664E-1,2.501562584E0
6.677142325E0,1.739551872E-1,2.549210072E0,-3.820845485E-1,2.583548141E0
6.687141225E0,1.809255332E-1,2.648356915E0,-3.990299106E-1,2.684353417E0
6.697140091E0,1.780200899E-1,2.603835583E0,-3.919787705E-1,2.639185149E0
6.707138957E0,1.433732808E-1,2.542605877E0,-3.819930851E-1,2.575134804E0
6.717137823E0,1.278336197E-1,2.488560677E0,-3.596239686E-1,2.517658649E0
6.727136689E0,1.168101206E-1,2.384331226E0,-3.335505724E-1,2.410380880E0
6.737135555E0,1.165350378E-1,2.309689045E0,-3.502326608E-1,2.338996968E0
6.747134421E0,1.273524910E-1,2.259148121E0,-3.292548656E-1,2.286564597E0
6.757133221E0,1.275523901E-1,2.127321720E0,-3.210737705E-1,2.155192724E0
6.767132087E0,1.387472302E-1,1.928654194E0,-3.229790926E-1,1.960426813E0
6.777130953E0,1.248609573E-1,1.684625626E0,-2.827182412E-1,1.712741475E0
6.787129753E0,1.124118194E-1,1.462289810E0,-2.696300745E-1,1.491183518E0
6.797128619E0,1.132574826E-1,1.194576263E0,-2.264704704E-1,1.221117759E0
6.807127485E0,1.132970750E-1,9.964208603E-1,-2.345508337E-1,1.029905263E0
6.817126285E0,8.857297152E-2,8.294916153E-1,-1.816512346E-1,8.537556338E-1
6.827125151E0,6.296682358E-2,5.406198502E-1,-1.436548829E-1,5.629132870E-1
6.837124017E0,5.137765035E-2,2.565917969E-1,-1.334150434E-1,2.937321688E-1
6.847122883E0,5.169818550E-2,-1.061725616E-2,-8.854275942E-2,1.030788473E-1
6.857121749E0,3.766651824E-2,-3.112802505E-1,-4.032123089E-2,3.161328244E-1
6.867120615E0,4.524469748E-2,-5.472583771E-1,-2.259021997E-2,5.495899671E-1
6.877119481E0,3.376892582E-2,-7.521190643E-1,4.811805487E-2,7.544128674E-1
6.887118347E0,2.954056859E-2,-9.378271103E-1,6.875425577E-2,9.408078878E-1
6.897117147E0,6.300341338E-3,-1.161885262E0,9.388089180E-2,1.165688928E0
6.907115980E0,-9.807622060E-3,-1.455463409E0,1.230367422E-1,1.460687498E0
6.917114780E0,1.240304299E-2,-1.674879074E0,1.634563208E-1,1.682881968E0
6.927113513E0,-1.810213178E-2,-1.880051613E0,1.714198589E-1,1.887937108E0
6.937112246E0,-1.999876089E-2,-1.999106407E0,1.762368083E-1,2.006959339E0
6.947110979E0,-5.357144400E-4,-2.067916870E0,1.778649092E-1,2.075552070E0
6.957109712E0,-2.907477692E-2,-2.172707558E0,1.935792565E-1,2.181507828E0
6.967108445E0,-2.195106074E-2,-2.270334244E0,2.042719722E-1,2.279611034E0
6.977107178E0,-5.016637221E-2,-2.358814240E0,2.132790089E-1,2.368967965E0
6.987105911E0,-4.244009033E-2,-2.413767815E0,2.270660400E-1,2.424795911E0
6.997104644E0,-4.444025084E-2,-2.425644875E0,2.167238593E-1,2.435712878E0
7.007103310E0,-5.155161768E-2,-2.384827614E0,2.187403440E-1,2.395393006E0
7.017102043E0,-5.403108522E-2,-2.276960373E0,2.114410996E-1,2.287394858E0
7.027100809E0,-7.333156466E-2,-2.207379341E0,2.164000869E-1,2.219173286E0
7.037099509E0,-7.570873946E-2,-2.142580032E0,2.073529363E-1,2.153921133E0
7.047098275E0,-8.002455533E-2,-2.063391685E0,2.174087167E-1,2.076356358E0
7.057097041E0,-9.324526787E-2,-1.917163849E0,1.966177225E-1,1.929474134E0
7.067095741E0,-9.127148241E-2,-1.766117096E0,2.072901130E-1,1.780581161E0
7.077094507E0,-9.807868302E-2,-1.533687592E0,1.937399507E-1,1.548984256E0
7.087093273E0,-8.724303544E-2,-1.265344620E0,1.801102757E-1,1.281073013E0
7.097092039E0,-9.499927610E-2,-1.071254730E0,1.801987886E-1,1.090450899E0
7.107090805E0,-9.727402031E-2,-9.059362411E-1,1.770697832E-1,9.281898600E-1
7.117089571E0,-8.211079240E-2,-6.592960358E-1,1.775843501E-1,6.877133461E-1
7.127088337E0,-1.024674252E-1,-4.127149582E-1,1.434453130E-1,4.487869960E-1
7.137087103E0,-7.656447589E-2,-1.207046509E-1,1.009423733E-1,1.749888409E-1
7.147085803E0,-4.606763273E-2,2.071714401E-1,9.857267141E-2,2.340059912E-1
7.157084569E0,-1.911685988E-2,4.918928146E-1,4.288119078E-2,4.941283153E-1
7.167083335E0,-3.476874903E-2,7.071990967E-1,-7.850885391E-3,7.080967905E-1
7.177082035E0,-2.601429075E-2,8.842105865E-1,3.076761961E-2,8.851280987E-1
7.187080801E0,-6.440524757E-2,1.140242577E0,-1.430732012E-2,1.142149670E0
7.197079567E0,-7.220168412E-2,1.329259872E0,5.912542343E-3,1.331232455E0
7.207078333E0,-9.892930835E-2,1.547001839E0,-5.221009254E-3,1.550170622E0
7.217077099E0,-1.005048156E-1,1.812582493E0,-5.051910877E-2,1.816069572E0
7.227075865E0,-1.006830186E-1,2.020707130E0,-3.127735853E-2,2.023455621E0
7.237074631E0,-1.017518193E-1,2.104300499E0,-5.596876144E-2,2.107502438E0
7.247073397E0,-7.712108642E-2,2.233323574E0,-9.576147795E-2,2.236705638E0
7.257072097E0,-8.820837736E-2,2.336075306E0,-1.014042497E-1,2.339938327E0
7.267070863E0,-8.727050573E-2,2.438857555E0,-1.328393817E-1,2.444031223E0
7.277069629E0,-6.765190512E-2,2.524961472E0,-1.534590721E-1,2.530525025E0
7.287068329E0,-7.497939467E-2,2.599206924E0,-1.316034794E-1,2.603616335E0
7.297067095E0,-1.135613546E-1,2.577731133E0,-1.208285689E-1,2.583058945E0
7.307065861E0,-1.006804630E-1,2.496449471E0,-9.992313385E-2,2.500476184E0
7.317064561E0,-1.201027408E-1,2.412772179E0,-8.161526918E-2,2.417137834E0
7.327063294E0,-1.064915583E-1,2.336260319E0,-7.350069284E-2,2.339840824E0
7.337062027E0,-1.057128310E-1,2.262080669E0,-5.439108610E-2,2.265202540E0
7.347060760E0,-9.537491202E-2,2.197369576E0,-6.338930130E-2,2.200351706E0
7.357059493E0,-8.572006226E-2,2.121200085E0,-4.464781284E-2,2.123400847E0
7.367058226E0,-6.544417143E-2,1.910894871E0,-3.403228521E-2,1.912318055E0
7.377056959E0,-5.866648629E-2,1.652621269E0,6.535351276E-3,1.653675158E0
7.387055692E0,-6.810250133E-2,1.451766014E0,7.738053799E-3,1.453383084E0
7.397054358E0,-6.724362075E-2,1.217334747E0,5.925893784E-3,1.219204949E0
7.407053091E0,-6.373648345E-2,1.004423141E0,2.763664722E-2,1.006822711E0
7.417051824E0,-5.018639192E-2,8.274145126E-1,5.620360374E-2,8.308383084E-1
7.427050524E0,-5.787994340E-2,5.905179977E-1,7.714670897E-2,5.983420495E-1
7.437049290E0,-4.858180881E-2,2.841501236E-1,1.022884846E-1,3.058830152E-1
7.447048056E0,-4.109049961E-2,-4.627704620E-2,1.568756104E-1,1.686414874E-1
7.457046822E0,-6.392192841E-2,-3.001594543E-1,1.549351215E-1,3.437827844E-1
7.467045588E0,-3.334982321E-2,-5.254268646E-1,1.514773965E-1,5.478421328E-1
7.477044354E0,-2.373641171E-2,-7.459926605E-1,1.442111731E-1,7.601745387E-1
7.487043120E0,-1.601516828E-2,-9.283256531E-1,1.575461626E-1,9.417355240E-1
7.497041886E0,-3.247019136E-3,-1.120286942E0,1.151766777E-1,1.126196715E0
7.507040586E0,-7.531930227E-3,-1.427179337E0,1.398079395E-1,1.434030630E0
7.517039352E0,-1.200096589E-2,-1.655054092E0,1.505133510E-1,1.661927297E0
7.527038118E0,-7.081119344E-3,-1.858922005E0,1.764488816E-1,1.867290917E0
7.537036818E0,-2.135843039E-3,-1.986132622E0,2.030572295E-1,1.996486812E0
7.547035584E0,-8.793398738E-3,-2.091788292E0,2.013992667E-1,2.101479775E0
7.557034350E0,-9.394291788E-3,-2.161562920E0,2.280170321E-1,2.173576379E0
7.567033050E0,2.449263632E-2,-2.236195564E0,2.275252938E-1,2.247874162E0
7.577031816E0,3.777362779E-2,-2.389953613E0,2.161651254E-1,2.400006767E0
7.587030582E0,6.372537464E-2,-2.419317245E0,2.084195018E-1,2.429114148E0
7.597029348E0,7.783581316E-2,-2.434408188E0,1.684228778E-1,2.441468391E0
7.607028114E0,7.782959938E-2,-2.372961044E0,1.732341051E-1,2.380548596E0
7.617026880E0,1.161344200E-1,-2.285238266E0,1.536904573E-1,2.293342951E0
7.627025646E0,9.333499521E-2,-2.202093124E0,1.473894119E-1,2.208992800E0
7.637024412E0,8.955533057E-2,-2.140478134E0,1.486496329E-1,2.147501691E0
7.647023145E0,1.025990099E-1,-2.081268311E0,1.521910429E-1,2.089345939E0
7.657021945E0,8.439788222E-2,-1.931165695E0,1.115643382E-1,1.936225851E0
7.667020845E0,1.121243089E-1,-1.745203972E0,1.065376401E-1,1.752044244E0
7.677019745E0,1.271039248E-1,-1.538332939E0,5.437731743E-2,1.544532464E0
7.687018711E0,1.491813064E-1,-1.283772469E0,1.492911577E-2,1.292497463E0
7.697017711E0,1.543020904E-1,-1.053295135E0,-2.802878618E-2,1.064906282E0
7.707016711E0,1.616222113E-1,-8.588247299E-1,-7.649743557E-2,8.772419926E-1
7.717015744E0,1.807111502E-1,-6.740312576E-1,-1.253970265E-1,7.090127434E-1
7.727014777E0,1.875282824E-1,-4.557504654E-1,-1.499960423E-1,5.151447914E-1
7.737013810E0,2.086113989E-1,-1.488494873E-1,-1.978070140E-1,3.237321430E-1
7.747012910E0,2.128206193E-1,1.245365143E-1,-2.163093090E-1,3.280117019E-1
7.757011943E0,2.241232246E-1,1.226739883E-1,-2.333605289E-1,3.460307265E-1
7.767011043E0,2.330540717E-1,6.499242783E-1,-2.860549688E-1,7.473574867E-1
7.777010143E0,2.420930415E-1,8.084211349E-1,-3.314974904E-1,9.066666192E-1
7.787009176E0,2.537732422E-1,1.057850838E0,-3.457737565E-1,1.141494084E0
7.797008276E0,2.895560563E-1,1.273687363E0,-3.937230706E-1,1.364236073E0
7.807007376E0,2.894808948E-1,1.494321823E0,-4.150938988E-1,1.577688133E0
7.817006409E0,2.771090567E-1,1.762168407E0,-4.258481264E-1,1.833950259E0
7.827005509E0,2.662870586E-1,1.974739552E0,-4.329097271E-1,2.039096841E0
7.837004609E0,2.566232979E-1,2.103373528E0,-4.551417828E-1,2.167300107E0
7.847003709E0,2.479938716E-1,2.172080517E0,-4.343035221E-1,2.228913251E0
7.857002809E0,2.352220714E-1,2.173662663E0,-4.210120440E-1,2.226519691E0
7.867001909E0,2.251303643E-1,2.405082703E0,-4.097068906E-1,2.450095146E0
7.877001009E0,2.250272632E-1,2.480778694E0,-4.181871414E-1,2.525822774E0
7.887000109E0,2.034648359E-1,2.549222946E0,-3.912759423E-1,2.587089568E0
7.896999142E0,1.941777319E-1,2.579221725E0,-3.917019963E-1,2.616012262E0
7.906998242E0,1.828231066E-1,2.580381393E0,-3.808127642E-1,2.614729582E0
7.916997342E0,1.838352829E-1,2.418690205E0,-3.679032922E-1,2.453407946E0
7.926996375E0,1.679270715E-1,2.367073059E0,-3.694790900E-1,2.401613867E0
7.936995475E0,1.664629281E-1,2.320817947E0,-3.821681738E-1,2.357956396E0
7.946994541E0,1.900922358E-1,2.217204094E0,-3.791512847E-1,2.257406642E0
7.956993607E0,1.859772503E-1,2.106623173E0,-3.837203383E-1,2.149346419E0
7.966992573E0,1.819547266E-1,1.902965546E0,-3.707668781E-1,1.947268207E0
7.976991473E0,1.738431007E-1,1.675603867E0,-3.412013650E-1,1.718804268E0
7.986990373E0,1.643142998E-1,1.448469162E0,-3.307469487E-1,1.494809569E0
7.996989239E0,1.483821869E-1,1.219145775E0,-2.800257206E-1,1.259661898E0
8.006988039E0,1.527889222E-1,1.040313721E0,-2.606255412E-1,1.083292557E0
8.016986872E0,1.344518065E-1,8.041553497E-1,-2.371842861E-1,8.491168944E-1
8.026985672E0,1.175506413E-1,5.776939392E-1,-2.100688219E-1,6.258413142E-1
8.036984405E0,1.238835007E-1,3.178157806E-1,-1.720147729E-1,3.820249655E-1
8.046983138E0,1.055371091E-1,-1.141166687E-2,-1.281539202E-1,1.664083375E-1
8.056981871E0,9.622889012E-2,-2.855186462E-1,-8.092105389E-2,3.119761427E-1
8.066980537E0,8.630546182E-2,-4.829530716E-1,-5.663472414E-2,4.938621205E-1
8.076979270E0,4.727927595E-2,-7.210445404E-1,4.609048367E-3,7.226076408E-1
8.086978036E0,6.076784432E-2,-9.184226990E-1,2.563542128E-2,9.207877930E-1
8.096976802E0,2.644369751E-2,-1.146964073E0,7.774811983E-2,1.149900267E0
8.106975568E0,1.845774055E-2,-1.401912689E0,1.103993058E-1,1.406374020E0
8.116974334E0,1.161808148E-3,-1.625825882E0,1.423118114E-1,1.632042830E0
8.126973100E0,-1.428864896E-3,-1.821117401E0,1.778032780E-1,1.829777209E0
8.136971866E0,-3.769362345E-3,-1.915980339E0,1.760610342E-1,1.924056225E0
8.146970566E0,-2.025105432E-2,-2.030117035E0,1.849085689E-1,2.038621215E0
8.156969332E0,-7.938026451E-3,-2.110844612E0,1.973342299E-1,2.120063392E0
8.166968098E0,-4.350874200E-2,-2.165319443E0,1.894669533E-1,2.174028295E0
8.176966798E0,-3.664740548E-2,-2.315624237E0,2.049521804E-1,2.324965384E0
8.186965564E0,-4.240158200E-2,-2.367786407E0,2.300001979E-1,2.379308819E0
8.196964330E0,-5.975874513E-2,-2.382102013E0,1.905641556E-1,2.390459329E0
8.206963096E0,-5.795644224E-2,-2.322109222E0,2.097467780E-1,2.332282980E0
8.216961862E0,-7.775025070E-2,-2.257293701E0,2.105222344E-1,2.268422264E0
8.226960628E0,-7.580561936E-2,-2.178051949E0,1.856201291E-1,2.187261213E0
8.236959394E0,-9.293219447E-2,-2.084436417E0,2.474941015E-1,2.101134193E0
8.246958160E0,-9.279847890E-2,-2.041100502E0,1.917452216E-1,2.052186406E0
8.256956860E0,-8.746588975E-2,-1.930729866E0,1.936992407E-1,1.942392209E0
8.266955626E0,-1.152582914E-1,-1.741314888E0,1.888354421E-1,1.755312177E0
8.276954392E0,-9.886157513E-2,-1.513554573E0,1.965374351E-1,1.529460042E0
8.286953092E0,-1.057441756E-1,-1.292985916E0,2.016122937E-1,1.312875442E0
8.296951858E0,-1.072531193E-1,-1.079626083E0,2.038550377E-1,1.103925988E0
8.306950624E0,-1.127273142E-1,-8.782691956E-1,2.003790736E-1,9.078634261E-1
8.316949324E0,-9.839586169E-2,-6.985464096E-1,1.982590556E-1,7.327724648E-1
8.326948090E0,-1.337108463E-1,-4.614305496E-1,1.923902035E-1,5.175043313E-1
8.336946856E0,-8.171638101E-2,-1.525526047E-1,1.563695669E-1,2.332408746E-1
8.346945622E0,-7.031702995E-2,1.442575455E-1,1.405966282E-1,2.133591713E-1
8.356944388E0,-4.744724929E-2,4.697151184E-1,7.523643970E-2,4.780628157E-1
8.366943154E0,-3.558722511E-2,7.232561111E-1,4.020947218E-2,7.252466164E-1
8.376941920E0,-3.799808398E-2,8.953828812E-1,5.182504654E-3,8.962037807E-1
8.386940653E0,-4.644099623E-2,1.081911087E0,-9.787738323E-3,1.082951599E0
8.396939319E0,-8.793810010E-2,1.278031349E0,-2.143204212E-3,1.281054968E0
8.406938052E0,-1.299718022E-1,1.538853645E0,1.101571321E-2,1.544371897E0
8.416936785E0,-1.396182477E-1,1.732628822E0,1.457059383E-2,1.738306128E0
8.426935451E0,-1.570435017E-1,1.890473366E0,-8.858263493E-3,1.897005713E0
8.436934184E0,-1.716452241E-1,2.036324978E0,-1.138293743E-2,2.043578007E0
8.446932917E0,-1.497241110E-1,2.112747192E0,-2.646601200E-2,2.118211146E0
8.456931650E0,-1.324320585E-1,2.249010086E0,-5.430620909E-2,2.253560246E0
8.466930383E0,-8.952143043E-2,2.366117001E0,-9.201169014E-2,2.369596991E0
8.476929116E0,-7.665047050E-2,2.493319511E0,-1.024026871E-1,2.496598444E0
8.486927849E0,-1.145158038E-1,2.555850983E0,-1.200786531E-1,2.561231539E0
8.496926615E0,-1.199236587E-1,2.539381981E0,-1.106299162E-1,2.544618146E0
8.506925315E0,-1.690340042E-1,2.470292568E0,-7.606178522E-2,2.477237022E0
8.516924081E0,-1.962294132E-1,2.351010799E0,-2.316236496E-2,2.359299527E0
8.526922847E0,-2.220982313E-1,2.262883186E0,4.072487354E-3,2.273759997E0
8.536921547E0,-2.263964415E-1,2.215512753E0,2.680164576E-2,2.227211358E0
8.546920313E0,-2.231413126E-1,2.136993408E0,6.314992905E-2,2.149539668E0
8.556919079E0,-2.002249956E-1,2.039325237E0,6.510579586E-2,2.050164929E0
8.566917779E0,-1.960867792E-1,1.862626553E0,8.257979155E-2,1.874739214E0
8.576916545E0,-1.922643036E-1,1.863066196E0,8.928030729E-2,1.875087248E0
8.586915311E0,-1.611771733E-1,1.449213028E0,1.134325862E-1,1.462553737E0
8.596914077E0,-1.517001688E-1,1.217155457E0,1.224927902E-1,1.232673854E0
8.606912843E0,-1.446551383E-1,1.061640739E0,1.087794304E-1,1.076958278E0
8.616911609E0,-1.663542688E-1,8.222732544E-1,1.277459264E-1,8.486024212E-1
8.626910375E0,-1.589944810E-1,5.900993347E-1,1.538057923E-1,6.302005170E-1
8.636909141E0,-1.725746840E-1,3.291997910E-1,1.966868043E-1,4.205237483E-1
8.646907841E0,-1.615820229E-1,2.756214142E-2,2.366716862E-1,2.878921826E-1
8.656906607E0,-1.499589384E-1,-2.645425797E-1,2.370860577E-1,3.855907914E-1
8.666905373E0,-1.376820803E-1,-4.848814011E-1,2.529897094E-1,5.639770575E-1
8.676904073E0,-1.222946197E-1,-6.622257233E-1,2.528969646E-1,7.193439770E-1
8.686902839E0,-1.231205538E-1,-8.707923889E-1,2.534709573E-1,9.152516493E-1
8.696901605E0,-1.262758821E-1,-1.122602463E0,2.444499135E-1,1.155827690E0
8.706900371E0,-1.055220589E-1,-1.326632500E0,2.268268466E-1,1.350014486E0
8.716899137E0,-9.421294928E-2,-1.614497185E0,2.110470533E-1,1.630956191E0
8.726897903E0,-9.955971688E-2,-1.789822578E0,2.124668956E-1,1.805136887E0
8.736896669E0,-8.306341618E-2,-1.878907204E0,2.247229815E-1,1.894120437E0
8.746895469E0,-9.249701351E-2,-1.991830826E0,2.532976866E-1,2.010001357E0
8.756894302E0,-9.457388520E-2,-2.128628731E0,2.710586190E-1,2.147900665E0
8.766893202E0,-7.191219926E-2,-2.219929695E0,2.890579700E-1,2.239824485E0
8.776892168E0,-7.657602429E-2,-2.301705360E0,2.898262739E-1,2.321144270E0
8.786891101E0,-4.616722092E-2,-2.383584976E0,2.892376184E-1,2.401513513E0
8.796890067E0,-3.085128590E-2,-2.391428947E0,2.694010139E-1,2.406753232E0
8.806889067E0,1.376790088E-2,-2.303627968E0,2.337241173E-1,2.315495267E0
8.816888067E0,2.757043764E-2,-2.237520218E0,2.229243517E-1,2.248766800E0
8.826887133E0,3.661043197E-2,-2.188283920E0,1.896958947E-1,2.196795706E0
8.836886199E0,5.537307262E-2,-2.098423958E0,1.823630333E-1,2.107060882E0
8.846885265E0,6.207315624E-2,-2.020572662E0,1.607012749E-1,2.027903316E0
8.856884331E0,8.537796885E-2,-1.940392494E0,1.676130891E-1,1.949488799E0
8.866883397E0,9.902765602E-2,-1.733406067E0,1.500258446E-1,1.742702161E0
8.876882463E0,1.247287989E-1,-1.490623474E0,1.098568439E-1,1.499861374E0
8.886881529E0,1.387104839E-1,-1.295930862E0,6.318289042E-2,1.304863777E0
8.896880529E0,1.598282307E-1,-1.065551758E0,7.251620293E-3,1.077496264E0
8.906879595E0,1.996547878E-1,-8.713731766E-1,-5.386710167E-2,8.955751849E-1
8.916878661E0,2.122742385E-1,-6.941223145E-1,-9.224945307E-2,7.316939943E-1
8.926877661E0,2.120350301E-1,-4.619264603E-1,-1.551576257E-1,5.314214876E-1
8.936876727E0,2.137309462E-1,-1.747083664E-1,-1.987046599E-1,3.401286117E-1
8.946875793E0,2.413713783E-1,8.860874176E-2,-2.507954836E-1,3.591796570E-1
8.956874859E0,2.522585988E-1,3.591232300E-1,-2.728921771E-1,5.167920620E-1
8.966873925E0,2.630204558E-1,5.722703934E-1,-2.863833904E-1,6.918732612E-1
8.976872991E0,2.786842585E-1,7.854690552E-1,-3.034103513E-1,8.869523064E-1
8.986872057E0,2.993710041E-1,9.604005814E-1,-3.241387010E-1,1.056909728E0
8.996871123E0,3.084382713E-1,1.180793762E0,-3.638050556E-1,1.273484273E0
9.006870123E0,3.347967565E-1,1.477719307E0,-4.131678343E-1,1.570493832E0
9.016869189E0,3.469670117E-1,1.695574760E0,-4.648464918E-1,1.792049703E0
9.026868255E0,3.589698076E-1,1.855885029E0,-5.119411349E-1,1.958380016E0
9.036867255E0,3.755720556E-1,2.004230499E0,-5.418505073E-1,2.109880621E0
9.046866288E0,3.588666320E-1,2.098434448E0,-5.443333387E-1,2.197387352E0
9.056865221E0,3.394573629E-1,2.170850277E0,-5.282593966E-1,2.259840750E0
9.066864087E0,3.242915273E-1,2.307738304E0,-5.148336887E-1,2.386603193E0
9.076862953E0,3.058632910E-1,2.451659679E0,-5.040253401E-1,2.521552910E0
9.086861786E0,3.194741607E-1,2.495487690E0,-5.090357661E-1,2.566834619E0
9.096860619E0,3.467495739E-1,2.482014179E0,-5.028279424E-1,2.556064473E0
9.106859419E0,3.490195572E-1,2.449504852E0,-5.029029846E-1,2.524836645E0
9.116858152E0,3.807825744E-1,2.373989105E0,-5.261546969E-1,2.461231075E0
9.126856885E0,3.802117705E-1,2.296154499E0,-5.394449234E-1,2.389118519E0
9.136855618E0,3.995951712E-1,2.237579823E0,-5.641913414E-1,2.341954661E0
9.146854284E0,4.074991643E-1,2.198315144E0,-5.663363934E-1,2.306378536E0
9.156853017E0,3.969445825E-1,2.063475609E0,-5.960626602E-1,2.184213196E0
9.166851750E0,4.059850276E-1,1.859464169E0,-5.592427850E-1,1.983729651E0
9.176850416E0,3.893387914E-1,1.665328026E0,-5.681771636E-1,1.802145226E0
9.186849149E0,4.043574035E-1,1.414083481E0,-5.553911328E-1,1.572131137E0
9.196847882E0,4.031539559E-1,1.218272209E0,-4.871914387E-1,1.372616402E0
9.206846615E0,3.977366090E-1,1.044383049E0,-4.928157926E-1,1.221391734E0
9.216845381E0,3.750610948E-1,8.278722763E-1,-4.278016090E-1,1.004518565E0
9.226844147E0,3.531087339E-1,5.948438644E-1,-3.704814911E-1,7.847174882E-1
9.236842913E0,3.418809474E-1,3.236637115E-1,-3.669444919E-1,5.968995229E-1
9.246841679E0,3.081448972E-1,3.820323944E-2,-2.882168889E-1,4.236528535E-1
9.256840379E0,2.855110466E-1,-2.591333389E-1,-3.068486452E-1,4.927704701E-1
9.266839145E0,2.648739815E-1,-4.966058731E-1,-2.434762120E-1,6.132342824E-1
9.276837911E0,2.535860538E-1,-6.573991776E-1,-2.175002098E-1,7.374184068E-1
9.286836611E0,2.159333527E-1,-8.540573120E-1,-1.953223944E-1,9.023258518E-1
9.296835377E0,2.216175348E-1,-1.110571861E0,-1.486164927E-1,1.142178205E0
9.306834143E0,2.133674473E-1,-1.331194878E0,-1.038892269E-1,1.352182843E0
9.316832843E0,1.840022951E-1,-1.573429108E0,-4.960930347E-2,1.584928101E0
9.326831609E0,1.763618886E-1,-1.763096809E0,-6.733536720E-4,1.771895688E0
9.336830375E0,1.711388081E-1,-1.881093025E0,1.358962059E-2,1.888910834E0
9.346829141E0,1.565540433E-1,-1.953737259E0,4.326397181E-2,1.960477038E0
9.356827907E0,1.300750375E-1,-2.052935600E0,5.924278498E-2,2.057905197E0
9.366826673E0,1.275116205E-1,-2.154673576E0,4.976189137E-2,2.159016832E0
9.376825439E0,1.343563795E-1,-2.242172241E0,5.599349737E-2,2.246891913E0
9.386824205E0,1.096140742E-1,-2.303375244E0,4.986703396E-2,2.306521078E0
9.396822905E0,7.237520814E-2,-2.355032921E0,6.278282404E-2,2.356981101E0
9.406821671E0,7.660853118E-2,-2.281553268E0,7.338851690E-2,2.284018401E0
9.416820437E0,4.932370782E-2,-2.208228111E0,9.777581692E-2,2.210941955E0
9.426819137E0,3.377608582E-2,-2.168531418E0,1.123825312E-1,2.171704208E0
9.436817903E0,1.059372909E-2,-2.102628708E0,1.497333646E-1,2.107980026E0
9.446816669E0,-3.287205473E-3,-1.993792534E0,1.235590577E-1,1.997620163E0
9.456815435E0,-1.075023506E-2,-1.889846802E0,1.539196372E-1,1.896134952E0
9.466814201E0,-1.205518004E-2,-1.733341217E0,1.399966478E-1,1.739027361E0
9.476812967E0,-1.970415935E-2,-1.471579552E0,1.324495077E-1,1.477659468E0
9.486811733E0,-3.164981306E-2,-1.260158539E0,1.292095780E-1,1.267160751E0
9.496810499E0,-2.894252911E-2,-1.094273567E0,1.278671622E-1,1.102099052E0
9.506809199E0,-4.535583407E-2,-8.996934891E-1,1.310359240E-1,9.103163952E-1
9.516807932E0,-4.465089738E-2,-7.027540207E-1,1.384638548E-1,7.176553179E-1
9.526806665E0,-3.429316729E-2,-4.340782166E-1,1.140030622E-1,4.501073401E-1
9.536805331E0,-1.717785373E-2,-1.607007980E-1,1.171358824E-1,1.996012026E-1
9.546804064E0,-3.248925880E-2,1.078042984E-1,1.023647189E-1,1.521704780E-1
9.556802797E0,-6.352269650E-2,3.737955093E-1,1.270880699E-1,3.998869756E-1
9.566801463E0,-6.892608851E-2,5.606412888E-1,1.137881875E-1,5.762093473E-1
9.576800196E0,-1.428471506E-1,7.624282837E-1,1.126519442E-1,7.838320335E-1
9.586798929E0,-1.787418276E-1,9.377241135E-1,1.225362420E-1,9.624397563E-1
9.596797662E0,-2.164661437E-1,1.132037163E0,1.145704985E-1,1.158228012E0
9.606796395E0,-2.335296571E-1,1.398095131E0,1.153594851E-1,1.422151155E0
9.616795161E0,-2.508437037E-1,1.644951820E0,1.105990410E-1,1.667639410E0
9.626793927E0,-2.306143492E-1,1.836704254E0,1.069896817E-1,1.854214736E0
9.636792693E0,-2.391727716E-1,1.963771820E0,7.330191135E-2,1.979640509E0
9.646791393E0,-2.248272002E-1,2.100348473E0,5.509895086E-2,2.113065752E0
9.656790159E0,-2.533299029E-1,2.184200287E0,5.521839857E-2,2.199535406E0
9.666788925E0,-2.727257013E-1,2.270397186E0,3.362178802E-2,2.286965919E0
9.676787625E0,-2.997907102E-1,2.370971203E0,6.760567427E-2,2.390805187E0
9.686786391E0,-3.527192175E-1,2.416483402E0,9.281823039E-2,2.443853126E0
9.696785157E0,-3.708513081E-1,2.399823666E0,1.092748046E-1,2.430766402E0
9.706783923E0,-3.674805760E-1,2.364053249E0,1.259221435E-1,2.395755857E0
9.716782689E0,-3.663589656E-1,2.325974941E0,1.592052877E-1,2.360026407E0
9.726781455E0,-3.576793075E-1,2.256822109E0,1.443405747E-1,2.289544654E0
9.736780221E0,-3.073931336E-1,2.204529762E0,1.435387731E-1,2.230480977E0
9.746778987E0,-3.159399927E-1,2.161819935E0,1.565012932E-1,2.190382653E0
9.756777687E0,-3.053542972E-1,2.059196949E0,1.613054276E-1,2.087954205E0
9.766776453E0,-3.171892166E-1,1.875094414E0,1.865558922E-1,1.910861366E0
9.776775219E0,-3.369518816E-1,1.650219917E0,2.134760916E-1,1.697743911E0
9.786773919E0,-3.400844336E-1,1.430116653E0,2.495068610E-1,1.491021374E0
9.796772685E0,-3.474814594E-1,1.229205132E0,2.762946784E-1,1.306915211E0
9.806771451E0,-3.369472027E-1,1.028315544E0,3.174342811E-1,1.127710423E0
9.816770217E0,-3.609440923E-1,8.513956070E-1,3.316815495E-1,9.824295230E-1
9.826768983E0,-3.356409371E-1,6.337699890E-1,3.542717099E-1,7.998922940E-1
9.836767783E0,-3.228940666E-1,3.346939087E-1,3.859542310E-1,6.043519332E-1
9.846766583E0,-3.355267644E-1,6.669235229E-2,3.964441121E-1,5.236353822E-1
9.856765416E0,-3.117630780E-1,-1.606979370E-1,4.044510722E-1,5.353510190E-1
9.866764316E0,-3.235876560E-1,-4.336748123E-1,4.050767422E-1,6.759215790E-1
9.876763216E0,-3.156448901E-1,-6.109609604E-1,4.057179689E-1,7.984435247E-1
9.886762116E0,-3.234554827E-1,-8.194370270E-1,3.732243478E-1,9.567637662E-1
9.896760949E0,-3.058135509E-1,-1.037518501E0,3.660368919E-1,1.141906115E0
9.906759849E0,-2.842695117E-1,-1.281914711E0,3.681734800E-1,1.363695785E0
9.916758715E0,-2.659554183E-1,-1.504759789E0,3.851329386E-1,1.575868550E0
9.926757515E0,-2.727087736E-1,-1.696454048E0,3.881885409E-1,1.761538179E0
9.936756381E0,-2.545160353E-1,-1.837887764E0,3.911919296E-1,1.896217543E0
9.946755247E0,-2.201146483E-1,-1.921897888E0,3.908827007E-1,1.973558015E0
9.956754113E0,-1.968598962E-1,-1.960471153E0,3.634362817E-1,2.003568539E0
9.966752979E0,-1.755621731E-1,-2.087735176E0,3.591115475E-1,2.125657862E0
9.976751845E0,-1.566359401E-1,-2.217501640E0,3.444535136E-1,2.249554748E0
9.986750711E0,-1.567893773E-1,-2.256346703E0,3.269861937E-1,2.285301582E0
9.996749577E0,-1.210357100E-1,-2.271313667E0,3.118692636E-1,2.295817470E0
1.000674838E1,-9.742847830E-2,-2.233648300E0,2.757012844E-1,2.252706869E0
1.001674724E1,-8.121566474E-2,-2.152892113E0,2.786538005E-1,2.172369300E0
1.002674611E1,-3.915858269E-2,-2.103282928E0,2.798509002E-1,2.122180246E0
1.003674491E1,-3.363667801E-2,-2.060896873E0,2.955320477E-1,2.082250355E0
1.004674378E1,-2.156790718E-2,-1.977961540E0,2.977423072E-1,2.000361845E0
1.005674264E1,-9.805135429E-3,-1.866477966E0,2.500236034E-1,1.883174963E0
1.006674151E1,1.358151250E-2,-1.712085724E0,2.217614055E-1,1.726441457E0
1.007674037E1,3.184416890E-2,-1.507987022E0,1.691621542E-1,1.517779544E0
1.008673924E1,2.685476094E-2,-1.301502228E0,1.319903731E-1,1.308453547E0
1.009673810E1,4.245360568E-2,-1.087842941E0,8.636021614E-2,1.092090958E0
1.010673697E1,5.347461998E-2,-9.653415680E-1,3.000754118E-2,9.672870982E-1
1.011673580E1,8.180238307E-2,-7.448253632E-1,-2.697086334E-2,7.497892230E-1
1.012673467E1,8.923924714E-2,-5.052700043E-1,-7.932043076E-2,5.191850837E-1
1.013673350E1,1.187991798E-1,-2.801780701E-1,-9.318596125E-2,3.182712985E-1
1.014673227E1,1.346837878E-1,2.622604370E-2,-1.260455251E-1,1.863196245E-1
1.015673107E1,1.724275202E-1,2.630825043E-1,-1.733966470E-1,3.591796917E-1
1.016672980E1,1.889407784E-1,4.902067184E-1,-2.666358948E-1,5.891484914E-1
1.017672847E1,1.985129118E-1,6.716852188E-1,-2.718251348E-1,7.513037423E-1
1.018672720E1,2.394543588E-1,8.913393021E-1,-3.392814398E-1,9.833290582E-1
1.019672593E1,2.541809678E-1,1.086979866E0,-3.991631269E-1,1.185522836E0
1.020672467E1,2.736139596E-1,1.359214783E0,-4.008553624E-1,1.443265203E0
1.021672340E1,2.978384495E-1,1.578793526E0,-4.803199768E-1,1.676903104E0
1.022672213E1,3.150967062E-1,1.750528812E0,-5.175871253E-1,1.852439875E0
1.023672087E1,3.417852819E-1,1.898419380E0,-5.556912422E-1,2.007387874E0
1.024671963E1,3.553561568E-1,1.992196083E0,-5.441747308E-1,2.095530808E0
1.025671833E1,3.398943841E-1,2.124277115E0,-4.937692881E-1,2.207235729E0
1.026671710E1,3.313944638E-1,2.220266819E0,-5.019041896E-1,2.300285820E0
1.027671586E1,3.326337934E-1,2.323594093E0,-5.168319345E-1,2.403507853E0
1.028671456E1,3.465881050E-1,2.321686745E0,-5.309635997E-1,2.406714565E0
1.029671333E1,3.685079515E-1,2.437169552E0,-5.515918136E-1,2.525835914E0
1.030671210E1,3.692745566E-1,2.375570297E0,-5.763256550E-1,2.472215443E0
1.031671086E1,3.729244471E-1,2.285410404E0,-5.808692575E-1,2.387379830E0
1.032670963E1,3.869295418E-1,2.257693768E0,-6.006541252E-1,2.368054264E0
1.033670839E1,3.874440789E-1,2.172721863E0,-6.021427512E-1,2.287664552E0
1.034670716E1,3.816757202E-1,2.109574318E0,-5.969423056E-1,2.225380928E0
1.035670593E1,3.882061243E-1,2.013320923E0,-6.103703380E-1,2.139326315E0
1.036670463E1,3.956464231E-1,1.864645958E0,-5.881980062E-1,1.994847747E0
1.037670339E1,4.014109373E-1,1.637279510E0,-5.879589915E-1,1.785360107E0
1.038670216E1,3.933113515E-1,1.434133530E0,-5.570168495E-1,1.587986326E0
1.039670086E1,3.880871832E-1,1.243269920E0,-5.335386992E-1,1.407478348E0
1.040669962E1,3.641531169E-1,1.033481598E0,-4.893537164E-1,1.200066150E0
1.041669836E1,3.650147021E-1,8.454513550E-1,-4.748215079E-1,1.036088409E0
1.042669706E1,3.261358440E-1,6.576519012E-1,-4.634428024E-1,8.681300842E-1
1.043669582E1,3.123880923E-1,3.742771149E-1,-4.239283204E-1,6.460533258E-1
1.044669459E1,3.051418960E-1,9.111213684E-2,-4.016813040E-1,5.126020563E-1
1.045669336E1,2.686135471E-1,-1.415967941E-1,-3.585048318E-1,4.698176287E-1
1.046669212E1,2.556768954E-1,-3.812475204E-1,-3.127682209E-1,5.554676468E-1
1.047669089E1,2.688580751E-1,-5.632829666E-1,-2.771162391E-1,6.829097854E-1
1.048668965E1,2.554777861E-1,-7.715902328E-1,-2.403392792E-1,8.475749853E-1
1.049668842E1,2.249661088E-1,-9.726829529E-1,-2.003318071E-1,1.018260630E0
1.050668712E1,2.155694813E-1,-1.183385849E0,-1.408942342E-1,1.211083587E0
1.051668589E1,2.007913142E-1,-1.446824074E0,-1.078669429E-1,1.464667993E0
1.052668465E1,1.808054894E-1,-1.609798431E0,-6.344807148E-2,1.621162321E0
1.053668335E1,1.460007131E-1,-1.770538330E0,-2.218455076E-2,1.776686337E0
1.054668208E1,1.325924397E-1,-1.859576225E0,-8.179008961E-3,1.864315260E0
1.055668082E1,1.118592992E-1,-1.941535950E0,1.245123148E-2,1.944795460E0
1.056667955E1,7.676927745E-2,-2.081085205E0,5.388897657E-2,2.083197824E0
1.057667828E1,5.406652018E-2,-2.184808731E0,6.394618750E-2,2.186412929E0
1.058667702E1,5.121354014E-2,-2.252719879E0,7.828241587E-2,2.254661353E0
1.059667575E1,4.447188601E-2,-2.248885155E0,1.090739965E-1,2.251967878E0
1.060667448E1,4.584156722E-2,-2.223575592E0,8.206671476E-2,2.225561684E0
1.061667315E1,4.542809352E-2,-2.140873909E0,1.004124284E-1,2.143708810E0
1.062667188E1,4.063852131E-2,-2.058021545E0,1.114319563E-1,2.061436696E0
1.063667061E1,3.671637923E-2,-2.011268616E0,1.017467976E-1,2.014175253E0
1.064666931E1,2.591653168E-2,-1.945436478E0,1.179180741E-1,1.949179168E0
1.065666808E1,1.512837596E-2,-1.819849968E0,1.116281748E-1,1.823333108E0
1.066666685E1,-1.803359762E-2,-1.653594971E0,1.176901460E-1,1.657875903E0
1.067666555E1,-3.189173341E-2,-1.484969139E0,1.549730897E-1,1.493374396E0
1.068666431E1,-4.782879725E-2,-1.290073395E0,1.559612155E-1,1.300346438E0
1.069666308E1,-6.072714925E-2,-1.071314812E0,1.516952515E-1,1.083704139E0
1.070666184E1,-7.516871393E-2,-9.316568375E-1,1.681078076E-1,9.496815431E-1
1.071666061E1,-8.167166263E-2,-7.585802078E-1,1.808114648E-1,7.840962811E-1
1.072665938E1,-8.508738875E-2,-4.970254898E-1,1.656231880E-1,5.307591183E-1
1.073665814E1,-8.317184448E-2,-2.571115494E-1,1.681016088E-1,3.182484178E-1
1.074665691E1,-1.170548946E-1,1.689434052E-2,1.624430418E-1,2.009353352E-1
1.075665561E1,-1.347257346E-1,2.716197968E-1,1.515350938E-1,3.389560771E-1
1.076665437E1,-1.699964255E-1,4.735279083E-1,1.855622530E-1,5.362469714E-1
1.077665314E1,-2.108477056E-1,6.441640854E-1,2.049222589E-1,7.080941011E-1
1.078665184E1,-2.515259683E-1,8.242654800E-1,2.239511609E-1,8.904117120E-1
1.079665061E1,-2.696641386E-1,1.049733162E0,2.662404180E-1,1.116038718E0
1.080664937E1,-3.029638529E-1,1.265535355E0,2.716567218E-1,1.329347285E0
1.081664814E1,-3.079063892E-1,1.493220329E0,2.637343109E-1,1.547277959E0
1.082664690E1,-3.105480075E-1,1.728036880E0,2.565073967E-1,1.774358354E0
1.083664567E1,-3.185627759E-1,1.835866928E0,2.162546813E-1,1.875808014E0
1.084664444E1,-2.937946618E-1,1.940863132E0,1.935046315E-1,1.972488034E0
1.085664320E1,-2.898328602E-1,2.055864811E0,1.910593808E-1,2.084966881E0
1.086664190E1,-3.403010368E-1,2.142091751E0,1.829896271E-1,2.176659613E0
1.087664067E1,-3.346602023E-1,2.257052422E0,1.911496520E-1,2.289720785E0
1.088663947E1,-3.542384803E-1,2.312159061E0,2.016859651E-1,2.347816359E0
1.089663830E1,-3.748970032E-1,2.345757961E0,2.172808051E-1,2.385443171E0
1.090663720E1,-3.773871958E-1,2.300383091E0,2.331295609E-1,2.342761800E0
1.091663617E1,-3.666049242E-1,2.264629841E0,2.612209022E-1,2.308935652E0
1.092663510E1,-3.711498678E-1,2.192992687E0,2.796701789E-1,2.241692343E0
1.093663410E1,-3.628188968E-1,2.157265186E0,2.878148556E-1,2.206415198E0
1.094663310E1,-3.824681044E-1,2.097587585E0,3.023716807E-1,2.153505088E0
1.095663210E1,-3.728280962E-1,1.989994049E0,3.227639496E-1,2.050183814E0
1.096663117E1,-3.652851284E-1,1.848876953E0,3.159212172E-1,1.910912198E0
1.097663023E1,-3.838462532E-1,1.650259018E0,3.629670143E-1,1.732754404E0
1.098662930E1,-3.846552372E-1,1.418112755E0,3.653569221E-1,1.514096799E0
1.099662836E1,-4.060511291E-1,1.245841026E0,4.054443836E-1,1.371634984E0
1.100662736E1,-3.977323174E-1,1.073589325E0,4.136752784E-1,1.217338191E0
1.101662643E1,-3.907278478E-1,8.798036575E-1,4.472028315E-1,1.061467427E0
1.102662550E1,-4.016103148E-1,6.836261749E-1,4.821276963E-1,9.279454227E-1
1.103662450E1,-3.921134472E-1,4.060688019E-1,5.056146383E-1,7.578198927E-1
1.104662356E1,-3.910836577E-1,1.476421356E-1,5.389034152E-1,6.820275057E-1
1.105662263E1,-3.935064971E-1,-1.395387650E-1,5.360193253E-1,6.794373755E-1
1.106662169E1,-3.849514425E-1,-1.394557953E-1,5.278959274E-1,6.680641003E-1
1.107662076E1,-3.819586039E-1,-5.057210922E-1,5.027263165E-1,8.089375424E-1
1.108661983E1,-3.405493200E-1,-7.235727310E-1,4.911938608E-1,9.385109191E-1
1.109661889E1,-3.549466729E-1,-9.031438828E-1,4.951010942E-1,1.089394835E0
1.110661796E1,-3.175161779E-1,-1.118652344E0,4.886748493E-1,1.261349554E0
1.111661696E1,-2.955926657E-1,-1.362933159E0,4.745509624E-1,1.473146441E0
1.112661602E1,-2.870145142E-1,-1.513871193E0,4.743284881E-1,1.612194416E0
1.113661509E1,-2.584573925E-1,-1.660066605E0,4.500206411E-1,1.739292941E0
1.114661409E1,-2.342597842E-1,-1.777612686E0,4.540974796E-1,1.849591585E0
1.115661316E1,-2.147016823E-1,-1.856939316E0,4.171319008E-1,1.915285738E0
1.116661222E1,-1.709328443E-1,-1.950708389E0,4.585853517E-1,2.011164285E0
1.117661122E1,-1.823632419E-1,-2.063716888E0,3.607842624E-1,2.102938190E0
1.118661026E1,-1.506712586E-1,-2.162481308E0,3.987137377E-1,2.204087085E0
1.119660919E1,-1.357760280E-1,-2.160775185E0,3.361178637E-1,2.190972329E0
1.120660812E1,-1.067150682E-1,-2.113640785E0,3.478327990E-1,2.144726820E0
1.121660699E1,-8.508943766E-2,-2.083319664E0,3.575693369E-1,2.115494473E0
1.122660582E1,-5.691168085E-2,-2.021972656E0,2.833837867E-1,2.042527535E0
1.123660465E1,-6.284297258E-2,-1.975057602E0,3.289613724E-1,2.003251695E0
1.124660345E1,-4.309628904E-2,-1.940213203E0,2.805838585E-1,1.960870181E0
1.125660219E1,-4.049502313E-2,-1.852842331E0,2.454480529E-1,1.869467651E0
1.126660092E1,-1.570084319E-2,-1.682379723E0,2.313674688E-1,1.698287064E0
1.127659965E1,-6.803471595E-3,-1.516784668E0,2.041010261E-1,1.530470269E0
1.128659832E1,8.267842233E-3,-1.518812180E0,1.752865911E-1,1.528916016E0
1.129659705E1,2.666800469E-2,-1.142642975E0,1.013535261E-1,1.147439187E0
1.130659578E1,6.996924430E-2,-9.702539444E-1,4.745197296E-2,9.739302344E-1
1.131659452E1,8.034128696E-2,-7.860975266E-1,-1.003795862E-2,7.902561637E-1
1.132659325E1,9.630765021E-2,-6.045389175E-1,-6.087768078E-2,6.151817279E-1
1.133659198E1,1.127775833E-1,-3.537359238E-1,-9.535181522E-2,3.833273480E-1
1.134659072E1,1.392130256E-1,-7.436943054E-2,-1.586060524E-1,2.237564715E-1
1.135658945E1,1.921970844E-1,1.306371689E-1,-2.025268078E-1,3.082578418E-1
1.136658815E1,1.903022081E-1,3.570337296E-1,-2.583810687E-1,4.800508214E-1
1.137658692E1,2.200127989E-1,5.569591522E-1,-3.020126820E-1,6.706868039E-1
1.138658568E1,2.546057701E-1,7.304191589E-1,-3.477187753E-1,8.480828925E-1
1.139658438E1,2.871533930E-1,9.804096222E-1,-4.215520620E-1,1.105154396E0
1.140658315E1,3.030062914E-1,1.199198723E0,-4.969025850E-1,1.332967580E0
1.141658191E1,3.255989552E-1,1.195319176E0,-5.255775452E-1,1.345746769E0
1.142658061E1,3.859040439E-1,1.596100807E0,-5.770007968E-1,1.740514188E0
1.143657938E1,3.949143887E-1,1.764731407E0,-6.100295782E-1,1.908499515E0
1.144657814E1,4.314451814E-1,1.837741375E0,-6.364948750E-1,1.992125506E0
1.145657691E1,4.329580069E-1,1.932461739E0,-6.899367571E-1,2.097110807E0
1.146657568E1,4.664562941E-1,2.051349163E0,-6.960673928E-1,2.215880114E0
1.147657444E1,4.744114280E-1,2.153669357E0,-7.029899359E-1,2.314638795E0
1.148657321E1,4.949976206E-1,2.213097572E0,-7.538918257E-1,2.389806769E0
1.149657198E1,4.870256186E-1,2.241714954E0,-7.477846742E-1,2.412812013E0
1.150657068E1,5.064557195E-1,2.234602451E0,-7.595699430E-1,2.413895609E0
1.151656944E1,5.102137327E-1,2.163063526E0,-8.035246134E-1,2.363221038E0
1.152656821E1,5.124427080E-1,2.113272667E0,-8.151412010E-1,2.322277777E0
1.153656691E1,5.298770070E-1,2.085334301E0,-8.226908445E-1,2.303521004E0
1.154656567E1,5.385195613E-1,2.048130035E0,-8.355000615E-1,2.276598408E0
1.155656444E1,5.335290432E-1,1.913157940E0,-8.484761119E-1,2.159800513E0
1.156656321E1,5.291470289E-1,1.792918682E0,-8.210567236E-1,2.041736546E0
1.157656197E1,5.327425599E-1,1.579702377E0,-8.128411174E-1,1.854719633E0
1.158656074E1,5.250866413E-1,1.409972191E0,-7.855587602E-1,1.697303781E0
1.159655950E1,5.278776288E-1,1.209530830E0,-7.630626559E-1,1.524429151E0
1.160655827E1,5.023159385E-1,1.071912766E0,-7.274875641E-1,1.389444650E0
1.161655697E1,4.898820817E-1,8.867521286E-1,-7.136577368E-1,1.239201822E0
1.162655574E1,4.667126834E-1,6.468629837E-1,-6.833749413E-1,1.050358872E0
1.163655450E1,4.856754541E-1,4.407110214E-1,-6.561622620E-1,9.277153471E-1
1.164655320E1,4.652180374E-1,1.965656281E-1,-6.221553087E-1,8.013383159E-1
1.165655197E1,4.339987338E-1,-5.929183960E-2,-6.100920439E-1,7.510544089E-1
1.166655070E1,4.374830127E-1,-2.717695236E-1,-5.504212976E-1,7.537994860E-1
1.167654937E1,4.207007289E-1,-4.146156311E-1,-4.914433360E-1,7.683825723E-1
1.168654810E1,3.932029903E-1,-6.506109238E-1,-4.663966298E-1,8.918682537E-1
1.169654683E1,3.671116829E-1,-8.577642441E-1,-4.185040593E-1,1.022583069E0
1.170654556E1,3.587916195E-1,-1.086348534E0,-3.501319885E-1,1.196443468E0
1.171654430E1,3.209508061E-1,-1.307795525E0,-2.982761860E-1,1.379241544E0
1.172654303E1,2.969209552E-1,-1.498210907E0,-2.513383627E-1,1.547891775E0
1.173654176E1,2.609960437E-1,-1.636113167E0,-2.143456936E-1,1.670607466E0
1.174654050E1,2.303813398E-1,-1.731119156E0,-1.662495136E-1,1.754277057E0
1.175653916E1,2.294778973E-1,-1.879016876E0,-1.525570750E-1,1.899115106E0
1.176653790E1,2.011559755E-1,-1.952932358E0,-1.304579377E-1,1.967594418E0
1.177653666E1,1.863175929E-1,-2.029452324E0,-1.070016623E-1,2.040794046E0
1.178653536E1,1.942262501E-1,-2.115715027E0,-9.861123562E-2,2.126898702E0
1.179653413E1,2.051873505E-1,-2.111118317E0,-1.049724221E-1,2.123662310E0
1.180653289E1,1.922118366E-1,-2.087421417E0,-6.353479624E-2,2.097214875E0
1.181653166E1,1.830513626E-1,-2.011057854E0,-8.621704578E-2,2.021211239E0
1.182653043E1,1.724067926E-1,-1.987357140E0,-5.565708876E-2,1.995597708E0
1.183652919E1,1.394712329E-1,-1.919007301E0,-5.448651314E-2,1.924840260E0
1.184652796E1,1.053686216E-1,-1.884603500E0,4.548788071E-3,1.887552275E0
1.185652672E1,7.495616376E-2,-1.812287331E0,1.598525047E-2,1.813907198E0
1.186652542E1,4.126381129E-2,-1.668468475E0,7.593387365E-2,1.670705153E0
1.187652419E1,1.159947179E-2,-1.479470253E0,8.131146431E-2,1.481748404E0
1.188652296E1,-1.620696485E-2,-1.297929764E0,9.446626902E-2,1.301463873E0
1.189652166E1,-3.812325001E-2,-1.152339935E0,1.282922626E-1,1.160086037E0
1.190652042E1,-6.778320670E-2,-9.805107117E-1,1.606258750E-1,9.958897984E-1
1.191651919E1,-1.193628088E-1,-8.351249695E-1,1.961402893E-1,8.661132766E-1
1.192651789E1,-1.348485500E-1,-6.396188736E-1,1.956871748E-1,6.823414873E-1
1.193651665E1,-1.615367234E-1,-4.179344177E-1,2.357203364E-1,5.062878307E-1
1.194651542E1,-2.084254622E-1,-1.485395432E-1,2.631596923E-1,3.670942561E-1
1.195651419E1,-2.178589851E-1,4.885387421E-2,2.775223553E-1,3.561851992E-1
1.196651295E1,-2.251733243E-1,2.820100784E-1,3.168472052E-1,4.802341739E-1
1.197651175E1,-2.156833857E-1,5.294094086E-1,2.851006091E-1,6.388082670E-1
1.198651055E1,-2.043232769E-1,7.311897278E-1,2.850365043E-1,8.109452683E-1
1.199650939E1,-2.043965012E-1,9.591684341E-1,2.736377418E-1,1.018164834E0
1.200650822E1,-2.004997730E-1,1.191817284E0,2.684827447E-1,1.238027294E0
1.201650712E1,-2.473991960E-1,1.390769958E0,2.818331420E-1,1.440443459E0
1.202650602E1,-2.984014452E-1,1.524950027E0,3.261859715E-1,1.587738422E0
1.203650485E1,-3.501304984E-1,1.651817322E0,3.462197185E-1,1.723647274E0
1.204650375E1,-3.751558065E-1,1.745075226E0,3.754541278E-1,1.824005270E0
1.205650265E1,-4.057237208E-1,1.814373493E0,3.749616742E-1,1.896617823E0
1.206650155E1,-4.124702811E-1,1.917159081E0,4.021312892E-1,2.001834221E0
1.207650042E1,-4.045318067E-1,2.077418327E0,3.871248960E-1,2.151552596E0
1.208649928E1,-3.843970001E-1,2.177859783E0,3.944953978E-1,2.246432930E0
1.209649815E1,-3.649342060E-1,2.213653564E0,3.689634204E-1,2.273669519E0
1.210649702E1,-3.738464117E-1,2.235060692E0,3.567010760E-1,2.294012444E0
1.211649582E1,-3.954884112E-1,2.196534157E0,3.631623387E-1,2.261207702E0
1.212649468E1,-4.434252679E-1,2.114815712E0,4.041737318E-1,2.198278388E0
1.213649355E1,-4.803104997E-1,2.025848389E0,4.437811375E-1,2.128779361E0
1.214649235E1,-4.976919889E-1,1.982354641E0,5.102727413E-1,2.106609957E0
1.215649121E1,-5.252915621E-1,1.857510090E0,5.331057310E-1,2.002617457E0
1.216649008E1,-5.427854061E-1,1.739937782E0,5.735340118E-1,1.910743506E0
1.217648888E1,-5.377430320E-1,1.591365814E0,6.309487224E-1,1.794354762E0
1.218648774E1,-5.219744444E-1,1.426167488E0,6.187002659E-1,1.639878362E0
1.219648661E1,-4.985151887E-1,1.268278122E0,6.561552286E-1,1.512476933E0
1.220648548E1,-5.063726902E-1,1.117647171E0,6.188749671E-1,1.374246967E0
1.221648434E1,-4.720326066E-1,9.814367294E-1,6.119101644E-1,1.249186489E0
1.222648321E1,-4.815482795E-1,7.375135422E-1,6.246655583E-1,1.079825000E0
1.223648208E1,-4.758065939E-1,5.175275803E-1,6.116374135E-1,9.318406713E-1
1.224648094E1,-4.904504716E-1,2.951974869E-1,6.428756714E-1,8.607975083E-1
1.225647974E1,-4.773945212E-1,2.739334106E-2,6.442911625E-1,8.023509370E-1
1.226647861E1,-4.555658400E-1,-1.685466766E-1,6.610381603E-1,8.203168084E-1
1.227647744E1,-4.392432868E-1,-3.620738983E-1,6.592984200E-1,8.710376452E-1
1.228647621E1,-4.117110670E-1,-5.221166611E-1,6.240878105E-1,9.119196268E-1
1.229647501E1,-3.923019469E-1,-7.156839371E-1,6.392237544E-1,1.036682846E0
1.230647374E1,-3.623296320E-1,-9.500598907E-1,6.088169217E-1,1.185139065E0
1.231647247E1,-3.319411278E-1,-1.129470825E0,5.883617401E-1,1.316077047E0
1.232647120E1,-3.253031075E-1,-1.330551147E0,5.231923461E-1,1.466260106E0
1.233646994E1,-3.017858863E-1,-1.452747345E0,4.905047715E-1,1.562736222E0
1.234646867E1,-2.760362923E-1,-1.541490555E0,4.680288136E-1,1.634454079E0
1.235646740E1,-2.651591599E-1,-1.668616295E0,4.520016015E-1,1.748969745E0
1.236646607E1,-2.739438713E-1,-1.774208069E0,4.692820907E-1,1.855555226E0
1.237646480E1,-2.569962442E-1,-1.894206047E0,4.787521362E-1,1.970600727E0
1.238646354E1,-2.377633452E-1,-1.990262985E0,5.059620142E-1,2.067287043E0
1.239646224E1,-2.323840708E-1,-2.026545525E0,4.804250002E-1,2.095637683E0
1.240646100E1,-1.973434985E-1,-2.010236740E0,4.731785953E-1,2.074582896E0
1.241645977E1,-1.974116117E-1,-1.970107079E0,4.523509145E-1,2.030988576E0
1.242645847E1,-1.753101796E-1,-1.956487656E0,4.057985544E-1,2.005804096E0
1.243645723E1,-1.522656232E-1,-1.914340019E0,3.945263624E-1,1.960493198E0
1.244645600E1,-1.191538423E-1,-1.862820625E0,3.338545561E-1,1.896248187E0
1.245645477E1,-9.977379441E-2,-1.804277420E0,2.912891507E-1,1.830360945E0
1.246645353E1,-7.284092903E-2,-1.669318199E0,2.815571427E-1,1.694462592E0
1.247645230E1,-5.257416517E-2,-1.517734528E0,2.569589615E-1,1.540230517E0
1.248645106E1,-2.934994176E-2,-1.330431938E0,2.267434001E-1,1.349934491E0
1.249644983E1,1.858486794E-3,-1.203246117E0,2.021545768E-1,1.220111120E0
1.250644853E1,2.704728767E-2,-1.052445412E0,1.322360039E-1,1.061065154E0
1.251644730E1,5.813172460E-2,-8.684816360E-1,6.234925985E-2,8.726551895E-1
1.252644606E1,9.466785192E-2,-6.729202271E-1,-9.458780289E-3,6.796124651E-1
1.253644476E1,1.075774580E-1,-4.394416809E-1,-1.046938300E-1,4.643734472E-1
1.254644353E1,1.611038148E-1,-1.990365982E-1,-1.617984772E-1,3.029005675E-1
1.255644229E1,1.830930710E-1,4.978179932E-4,-2.566092014E-1,3.152326168E-1
1.256644106E1,2.284946591E-1,2.094917297E-1,-2.949609756E-1,4.279001884E-1
1.257643983E1,2.611430287E-1,3.921709061E-1,-3.649088144E-1,5.959464270E-1
1.258643859E1,2.642429769E-1,5.700950623E-1,-3.941534162E-1,7.417476972E-1
1.259643736E1,2.928113639E-1,7.720708847E-1,-4.138035774E-1,9.236153672E-1
1.260643612E1,3.134884536E-1,9.717206955E-1,-4.410971999E-1,1.112242267E0
1.261643482E1,3.694679737E-1,1.216875076E0,-4.982185364E-1,1.365837928E0
1.262643359E1,3.820512295E-1,1.378220558E0,-5.352192521E-1,1.527060803E0
1.263643236E1,3.939573765E-1,1.515599251E0,-5.906668901E-1,1.673657934E0
1.264643106E1,4.210338295E-1,1.626710892E0,-6.259178519E-1,1.793106513E0
1.265642982E1,4.443821013E-1,1.747492313E0,-6.648156047E-1,1.921766017E0
1.266642859E1,4.733131230E-1,1.839674473E0,-7.070457339E-1,2.026904326E0
1.267642729E1,4.671986401E-1,1.956040859E0,-7.402574420E-1,2.142977250E0
1.268642605E1,4.980785847E-1,2.043870449E0,-7.549465299E-1,2.235046521E0
1.269642479E1,4.988144040E-1,2.057761669E0,-7.580055594E-1,2.248948938E0
1.270642352E1,5.005854964E-1,2.045614719E0,-7.828931808E-1,2.246785960E0
1.271642225E1,5.274682045E-1,2.028945923E0,-7.677109838E-1,2.232537664E0
1.272642099E1,5.269111395E-1,1.990950584E0,-7.630506754E-1,2.196307335E0
1.273641972E1,5.303208232E-1,1.950724602E0,-7.860534787E-1,2.168973656E0
1.274641845E1,5.443845987E-1,1.908329964E0,-8.100659847E-1,2.143428268E0
1.275641712E1,5.668725371E-1,1.873295784E0,-8.188130856E-1,2.121564620E0
1.276641585E1,5.687312484E-1,1.735572815E0,-8.429760337E-1,2.011535936E0
1.277641458E1,5.711879730E-1,1.571872711E0,-8.579751253E-1,1.879670406E0
1.278641325E1,5.501974821E-1,1.446907997E0,-8.586518168E-1,1.770181619E0
1.279641198E1,5.799362659E-1,1.269836426E0,-8.513248563E-1,1.635103860E0
1.280641075E1,5.645915866E-1,1.119682312E0,-8.357613683E-1,1.506966889E0
1.281640952E1,5.711333156E-1,9.844665527E-1,-8.119395971E-1,1.398074950E0
1.282640828E1,5.350022912E-1,7.828435898E-1,-7.652089000E-1,1.218448275E0
1.283640705E1,5.232188702E-1,5.554218292E-1,-7.222952843E-1,1.050695899E0
1.284640581E1,4.952735305E-1,3.188552856E-1,-6.694571376E-1,8.917047842E-1
1.285640458E1,4.842760861E-1,9.716033936E-2,-6.276071668E-1,7.986577583E-1
1.286640328E1,4.600362778E-1,-8.841228485E-2,-5.721830130E-1,7.394886810E-1
1.287640204E1,4.465286434E-1,-2.738008499E-1,-5.368604064E-1,7.500492189E-1
1.288640081E1,4.390137196E-1,-4.447250366E-1,-5.050393343E-1,8.034787697E-1
1.289639951E1,4.162806571E-1,-6.346492767E-1,-4.645515680E-1,8.898749627E-1
1.290639828E1,3.783749640E-1,-8.867874146E-1,-4.158040881E-1,1.049977415E0
1.291639704E1,3.732655346E-1,-1.079034805E0,-3.756799698E-1,1.201989480E0
1.292639574E1,3.651234806E-1,-1.235376358E0,-3.107213378E-1,1.325148162E0
1.293639451E1,3.157387078E-1,-1.403757095E0,-2.527114153E-1,1.460851797E0
1.294639328E1,2.897861004E-1,-1.490872383E0,-2.019822001E-1,1.532146617E0
1.295639204E1,2.678712010E-1,-1.487242699E0,-1.740106940E-1,1.521159277E0
1.296639081E1,2.386299670E-1,-1.713734627E0,-1.449282169E-1,1.736327970E0
1.297638957E1,2.069342583E-1,-1.837538719E0,-1.078263521E-1,1.852295023E0
1.298638834E1,1.824067831E-1,-1.887391090E0,-8.902394772E-2,1.898273591E0
1.299638710E1,1.771498173E-1,-1.942259789E0,-9.064328671E-2,1.952427041E0
1.300638580E1,1.502923369E-1,-1.946988106E0,-8.310371637E-2,1.954547697E0
1.301638457E1,1.213059798E-1,-1.896713257E0,-9.206700325E-2,1.902817031E0
1.302638337E1,1.257570386E-1,-1.870428085E0,-4.765772820E-2,1.875256600E0
1.303638220E1,8.929003030E-2,-1.865714073E0,-3.810286522E-2,1.868238085E0
1.304638110E1,8.116145432E-2,-1.826463699E0,5.882918835E-3,1.828275536E0
1.305638007E1,4.088518769E-2,-1.727705956E0,3.635978699E-2,1.728572099E0
1.306637904E1,3.839556128E-2,-1.617339134E0,7.455343008E-2,1.619511750E0
1.307637804E1,1.424772665E-3,-1.512103081E0,9.358382225E-2,1.514996927E0
1.308637707E1,-2.414170280E-2,-1.325779915E0,1.078841090E-1,1.330381218E0
1.309637610E1,-5.259674042E-2,-1.187603951E0,1.273774505E-1,1.195572907E0
1.310637514E1,-9.417773038E-2,-1.089948654E0,1.644647717E-1,1.106302931E0
1.311637417E1,-1.213629693E-1,-9.182081223E-1,1.903351545E-1,9.455488338E-1
1.312637327E1,-1.553908288E-1,-7.394170761E-1,2.170988917E-1,7.861398418E-1
1.313637237E1,-1.865325570E-1,-5.272779465E-1,2.634533048E-1,6.182427286E-1
1.314637140E1,-2.073247433E-1,-3.104991913E-1,3.028152883E-1,4.807186243E-1
1.315637050E1,-2.105880380E-1,-5.560588837E-2,3.130947351E-1,3.814022152E-1
1.316636960E1,-2.365420610E-1,1.535539627E-1,3.404712379E-1,4.420991177E-1
1.317636863E1,-2.238600403E-1,3.217878342E-1,3.560047746E-1,5.295282121E-1
1.318636773E1,-2.354700565E-1,5.448169708E-1,3.620363474E-1,6.952280173E-1
1.319636683E1,-2.554228604E-1,7.389001846E-1,3.325924575E-1,8.496070052E-1
1.320636593E1,-3.201387525E-1,9.016342163E-1,3.806701303E-1,1.029729493E0
1.321636503E1,-3.720830381E-1,1.095272064E0,3.703454137E-1,1.214587340E0
1.322636413E1,-4.057762027E-1,1.255199432E0,3.881526887E-1,1.375079071E0
1.323636323E1,-4.511423111E-1,1.357529640E0,4.557859004E-1,1.501384993E0
1.324636233E1,-4.879309535E-1,1.450193405E0,4.175311029E-1,1.586023250E0
1.325636137E1,-5.200331211E-1,1.597894669E0,4.909232259E-1,1.750630581E0
1.326636047E1,-5.216025710E-1,1.704985619E0,4.570688903E-1,1.840640424E0
1.327635957E1,-5.181064606E-1,1.843222141E0,4.789776206E-1,1.973656943E0
1.328635860E1,-4.983003139E-1,1.955123425E0,4.489313662E-1,2.066966420E0
1.329635770E1,-5.182771087E-1,2.023931026E0,4.389625192E-1,2.134852701E0
1.330635680E1,-5.545979142E-1,1.975379944E0,4.567384124E-1,2.101978769E0
1.331635590E1,-5.621125698E-1,1.945933342E0,4.742407799E-1,2.080271961E0
1.332635497E1,-6.430925727E-1,1.916503906E0,5.064834356E-1,2.084005938E0
1.333635393E1,-6.340454817E-1,1.894307613E0,5.514373183E-1,2.072317090E0
1.334635290E1,-6.702600718E-1,1.826769352E0,5.870258808E-1,2.032469979E0
1.335635180E1,-6.650539637E-1,1.809658527E0,6.126304865E-1,2.022987116E0
1.336635063E1,-6.381534338E-1,1.718618393E0,6.341255307E-1,1.939846431E0
1.337634950E1,-6.205534935E-1,1.575044632E0,6.412477493E-1,1.810262662E0
1.338634833E1,-6.201344728E-1,1.462702751E0,6.790487766E-1,1.727765419E0
1.339634710E1,-6.089716554E-1,1.314501762E0,6.970988512E-1,1.607702761E0
1.340634590E1,-6.136083603E-1,1.161588669E0,6.900510788E-1,1.483904966E0
1.341634463E1,-6.173036695E-1,1.027851105E0,6.869194508E-1,1.381810423E0
1.342634330E1,-6.151253581E-1,8.463029861E-1,6.618639231E-1,1.238011229E0
1.343634203E1,-6.090624332E-1,6.360769272E-1,6.824415922E-1,1.114126309E0
1.344634076E1,-6.059872508E-1,4.115810394E-1,7.036006451E-1,1.015713231E0
1.345633949E1,-5.747205615E-1,2.135000229E-1,7.063679099E-1,9.353296786E-1
1.346633826E1,-5.488747358E-1,7.773399353E-2,7.146707177E-1,9.044668508E-1
1.347633703E1,-5.381792188E-1,-1.418218613E-1,7.051925659E-1,8.983578724E-1
1.348633579E1,-5.100669265E-1,-2.967691422E-1,6.860738993E-1,9.049517051E-1
1.349633456E1,-5.147697330E-1,-5.020570755E-1,6.688715816E-1,9.820582354E-1
1.350633326E1,-4.997382462E-1,-7.050523758E-1,6.398671269E-1,1.075298613E0
1.351633202E1,-4.908275008E-1,-9.224615097E-1,6.017872095E-1,1.205817033E0
1.352633079E1,-4.638878107E-1,-1.077714920E0,5.768485069E-1,1.307446194E0
1.353632949E1,-4.425498545E-1,-1.206668854E0,5.371345878E-1,1.392987316E0
1.354632826E1,-4.055632055E-1,-1.330905914E0,4.790437222E-1,1.471487327E0
1.355632702E1,-3.818865716E-1,-1.426441193E0,4.942803383E-1,1.557204188E0
1.356632579E1,-3.647360504E-1,-1.534009933E0,5.137603283E-1,1.658363210E0
1.357632455E1,-3.352581859E-1,-1.687084198E0,5.115551949E-1,1.794530540E0
1.358632332E1,-3.246369660E-1,-1.770803452E0,5.169429779E-1,1.873062750E0
1.359632209E1,-2.799791992E-1,-1.789996147E0,5.122519732E-1,1.882784279E0
1.360632085E1,-2.681071162E-1,-1.821302414E0,4.777914882E-1,1.901922347E0
1.361631955E1,-2.362794578E-1,-1.814468384E0,4.729081392E-1,1.889911534E0
1.362631832E1,-1.918295622E-1,-1.793441772E0,4.067829847E-1,1.848973869E0
1.363631708E1,-1.706978530E-1,-1.787000656E0,3.918492198E-1,1.837404396E0
1.364631578E1,-1.325855702E-1,-1.766405106E0,3.658721745E-1,1.808764324E0
1.365631455E1,-9.681026638E-2,-1.707741737E0,3.219995499E-1,1.740528017E0
1.366631332E1,-8.994513750E-2,-1.591845512E0,2.937756777E-1,1.621223739E0
1.367631202E1,-4.502937198E-2,-1.500118256E0,2.645884156E-1,1.523938796E0
1.368631078E1,-1.705064997E-2,-1.356070518E0,2.404211760E-1,1.377323607E0
1.369630955E1,6.045125425E-3,-1.226683617E0,1.928436160E-1,1.241764027E0
1.370630831E1,3.173566610E-2,-1.114426613E0,1.333960891E-1,1.122830506E0
1.371630708E1,6.013320386E-2,-9.810428619E-1,6.444734335E-2,9.849947001E-1
1.372630585E1,8.887472749E-2,-8.120985031E-1,-1.555049419E-2,8.170951681E-1
1.373630461E1,1.156743988E-1,-5.956153870E-1,-1.034922004E-1,6.155070197E-1
1.374630338E1,1.667394638E-1,-4.200906754E-1,-1.505733132E-1,4.763932692E-1
1.375630208E1,1.725410074E-1,-1.897125244E-1,-2.329295278E-1,3.464352841E-1
1.376630081E1,2.096779495E-1,-7.340431213E-3,-2.992802858E-1,3.654961203E-1
1.377629954E1,2.564656436E-1,1.462507248E-1,-3.347150683E-1,4.463161187E-1
1.378629821E1,3.006834090E-1,3.214874268E-1,-3.790290952E-1,5.808853011E-1
1.379629694E1,3.204309046E-1,5.207204819E-1,-4.114386439E-1,7.369583045E-1
1.380629568E1,3.563800752E-1,7.079935074E-1,-4.444722533E-1,9.087448203E-1
1.381629441E1,3.820115924E-1,8.904247284E-1,-4.933374524E-1,1.087276826E0
1.382629314E1,4.213193059E-1,1.080023766E0,-5.459463000E-1,1.281412757E0
1.383629188E1,4.621839523E-1,1.238446236E0,-5.858368874E-1,1.445879643E0
1.384629061E1,4.852733612E-1,1.339434624E0,-6.270830035E-1,1.556537324E0
1.385628934E1,5.094684958E-1,1.335130692E0,-6.527493596E-1,1.571055008E0
1.386628804E1,5.274274945E-1,1.591967583E0,-7.102654576E-1,1.821268120E0
1.387628681E1,5.485216975E-1,1.588027954E0,-7.325006127E-1,1.832830048E0
1.388628557E1,5.743315220E-1,1.783206940E0,-7.592750192E-1,2.021430741E0
1.389628427E1,5.935211182E-1,1.846945286E0,-7.700282931E-1,2.087203339E0
1.390628304E1,6.156244874E-1,1.863082886E0,-7.717836499E-1,2.108487930E0
1.391628180E1,6.211652160E-1,1.836358070E0,-7.748131156E-1,2.087676352E0
1.392628051E1,6.294448972E-1,1.843327045E0,-8.034710288E-1,2.107040856E0
1.393627927E1,6.356916428E-1,1.843319893E0,-8.170170188E-1,2.114107117E0
1.394627804E1,6.424872875E-1,1.783631325E0,-8.346478343E-1,2.071416816E0
1.395627680E1,6.426259279E-1,1.760065079E0,-8.538317084E-1,2.059083716E0
1.396627557E1,6.392369270E-1,1.652950287E0,-8.716548085E-1,1.975006482E0
1.397627434E1,6.277503967E-1,1.527028084E0,-8.874638677E-1,1.874427231E0
1.398627310E1,6.296997666E-1,1.387154579E0,-8.935621381E-1,1.766118036E0
1.399627187E1,6.519978642E-1,1.298352242E0,-8.851839304E-1,1.701284911E0
1.400627057E1,6.587624550E-1,1.183815956E0,-8.874229193E-1,1.619539326E0
1.401626933E1,6.591500640E-1,1.026777267E0,-8.766704798E-1,1.502431860E0
1.402626810E1,6.598829627E-1,9.039106369E-1,-8.383843899E-1,1.398352012E0
1.403626680E1,6.653587818E-1,7.337951660E-1,-8.157839179E-1,1.283222917E0
1.404626556E1,6.440406442E-1,5.139684677E-1,-7.757977843E-1,1.131730595E0
1.405626433E1,6.222289205E-1,3.162002563E-1,-7.450863123E-1,1.020933418E0
1.406626310E1,6.188927889E-1,1.810979843E-1,-7.169335485E-1,9.642709562E-1
1.407626186E1,5.766428113E-1,3.361701965E-3,-6.790764928E-1,8.908833346E-1
1.408626063E1,5.506601334E-1,-1.956005096E-1,-5.958756804E-1,8.345980879E-1
1.409625940E1,4.949051440E-1,-3.964271545E-1,-5.355739594E-1,8.300150940E-1
1.410625816E1,4.733627141E-1,-6.114721298E-1,-4.877790809E-1,9.142750441E-1
1.411625689E1,4.316770732E-1,-8.432455063E-1,-4.122983217E-1,1.033149547E0
1.412625569E1,4.063670933E-1,-9.697380066E-1,-3.528582454E-1,1.109069410E0
1.413625459E1,3.571800590E-1,-1.091657639E0,-2.957792282E-1,1.186077294E0
1.414625349E1,3.489543796E-1,-1.223410606E0,-2.656142116E-1,1.299635941E0
1.415625246E1,3.290446103E-1,-1.326755524E0,-2.008233666E-1,1.381622452E0
1.416625143E1,2.875881493E-1,-1.406548500E0,-1.593449712E-1,1.444464069E0
1.417625036E1,2.723888755E-1,-1.534573555E0,-1.748952866E-1,1.568343093E0
1.418624936E1,2.280117571E-1,-1.648558617E0,-1.323620677E-1,1.669507290E0
1.419624842E1,2.021633983E-1,-1.686161041E0,-1.268181205E-1,1.702965629E0
1.420624749E1,1.709013581E-1,-1.716743469E0,-1.240209937E-1,1.729681075E0
1.421624656E1,1.298909187E-1,-1.749823570E0,-4.410958290E-2,1.755192250E0
1.422624562E1,8.913038671E-2,-1.739892006E0,-5.678063631E-2,1.743098522E0
1.423624469E1,6.587240100E-2,-1.746794701E0,-3.027838469E-2,1.748298510E0
1.424624376E1,5.537928641E-2,-1.722667694E0,-2.203267813E-2,1.723698433E0
1.425624276E1,6.465996057E-2,-1.686631203E0,-1.271069050E-2,1.687918033E0
1.426624182E1,2.743906528E-2,-1.554409027E0,3.287440538E-2,1.554998731E0
1.427624089E1,1.357106492E-2,-1.453672409E0,3.312087059E-2,1.454113008E0
1.428623989E1,-6.208719686E-3,-1.353259087E0,8.416342735E-2,1.355887970E0
1.429623895E1,-4.886975884E-2,-1.226778984E0,8.790034056E-2,1.230894552E0
1.430623802E1,-7.707345486E-2,-1.116947174E0,1.302491426E-1,1.127154003E0
1.431623709E1,-1.249013022E-1,-1.031193733E0,1.885522604E-1,1.055704886E0
1.432623615E1,-1.656562090E-1,-8.809719086E-1,2.075001001E-1,9.201140010E-1
1.433623522E1,-2.013940364E-1,-6.782417297E-1,2.799540758E-1,7.608848050E-1
1.434623428E1,-2.294612378E-1,-5.044984818E-1,3.141464293E-1,6.370707628E-1
1.435623335E1,-2.302196473E-1,-2.999000549E-1,3.403450847E-1,5.087002119E-1
1.436623235E1,-2.422298789E-1,-1.099567413E-1,3.768975735E-1,4.613215582E-1
1.437623142E1,-2.495810539E-1,7.011222839E-2,3.727178872E-1,4.540099673E-1
1.438623048E1,-2.698648274E-1,2.259263992E-1,3.736694455E-1,5.133211640E-1
1.439622948E1,-3.326820135E-1,4.005737305E-1,3.916622400E-1,6.515642301E-1
1.440622855E1,-3.860029876E-1,6.060028076E-1,4.127275050E-1,8.286022584E-1
1.441622758E1,-4.472058713E-1,7.321710587E-1,4.691503644E-1,9.778392582E-1
1.442622655E1,-5.102255344E-1,8.773097992E-1,4.937386513E-1,1.128618818E0
1.443622548E1,-5.330323577E-1,1.022337914E0,5.200943351E-1,1.264830590E0
1.444622435E1,-5.671186447E-1,1.131423950E0,5.571935177E-1,1.382826210E0
1.445622321E1,-6.025827527E-1,1.240510941E0,5.685533881E-1,1.491719251E0
1.446622204E1,-5.866737962E-1,1.407124519E0,5.705913901E-1,1.627808370E0
1.447622084E1,-5.918928981E-1,1.566603661E0,5.345130563E-1,1.757921625E0
1.448621964E1,-5.950298309E-1,1.656672478E0,5.271683931E-1,1.837533867E0
1.449621838E1,-6.140739322E-1,1.727572441E0,5.204932094E-1,1.905913564E0
1.450621704E1,-6.565607190E-1,1.724217415E0,5.271604061E-1,1.918826664E0
1.451621578E1,-6.957790852E-1,1.708907127E0,5.695883632E-1,1.931036770E0
1.452621451E1,-7.234770656E-1,1.700884819E0,5.839089751E-1,1.938395709E0
1.453621318E1,-7.410287261E-1,1.716964722E0,6.229360104E-1,1.971076026E0
1.454621191E1,-7.382013798E-1,1.735652924E0,6.644961834E-1,1.999746865E0
1.455621064E1,-7.076587677E-1,1.699503899E0,6.840190887E-1,1.963918671E0
1.456620937E1,-6.907092333E-1,1.670766830E0,7.140136361E-1,1.943799506E0
1.457620811E1,-6.883860826E-1,1.591870308E0,7.272582054E-1,1.880646424E0
1.458620687E1,-6.896685958E-1,1.453211784E0,7.420979738E-1,1.771489956E0
1.459620564E1,-6.612150669E-1,1.352943420E0,7.393120527E-1,1.677570736E0
1.460620441E1,-6.656405330E-1,1.283844948E0,7.501524687E-1,1.629129797E0
1.461620310E1,-6.839516759E-1,1.135809898E0,7.469555736E-1,1.521774178E0
1.462620187E1,-6.967062354E-1,9.662809372E-1,7.409685850E-1,1.402901590E0
1.463620064E1,-6.959524751E-1,8.088340759E-1,7.522780895E-1,1.305559165E0
1.464619934E1,-6.785553694E-1,6.036205292E-1,7.690460682E-1,1.190053355E0
1.465619810E1,-6.515886188E-1,4.272899628E-1,7.721583843E-1,1.096983596E0
1.466619687E1,-6.391217113E-1,2.606515884E-1,7.876803279E-1,1.047308986E0
1.467619557E1,-6.008153558E-1,1.419582367E-1,7.816879749E-1,9.960759624E-1
1.468619437E1,-5.972253084E-1,-2.220344543E-2,7.631735206E-1,9.693321848E-1
1.469619314E1,-5.783653855E-1,-1.983795166E-1,7.341342568E-1,9.554130305E-1
1.470619190E1,-5.705115199E-1,-3.937520981E-1,6.995550990E-1,9.848357455E-1
1.471619067E1,-5.544069409E-1,-5.820293427E-1,6.693070531E-1,1.045990986E0
1.472618943E1,-5.412841439E-1,-7.751636505E-1,6.316928267E-1,1.137058942E0
1.473618820E1,-5.121105313E-1,-8.797788620E-1,5.817319751E-1,1.172467540E0
1.474618697E1,-4.833323956E-1,-1.008390427E0,5.613897443E-1,1.251247339E0
1.475618566E1,-4.383201897E-1,-1.144222260E0,5.471735001E-1,1.341926975E0
1.476618443E1,-3.940679431E-1,-1.246603966E0,5.345131159E-1,1.412450092E0
1.477618320E1,-3.725730181E-1,-1.370622635E0,5.468152761E-1,1.521980291E0
1.478618190E1,-3.382559419E-1,-1.466066360E0,5.379458070E-1,1.597858988E0
1.479618066E1,-2.747934461E-1,-1.540099144E0,5.141454935E-1,1.646742967E0
1.480617943E1,-2.638194263E-1,-1.540143013E0,4.847544730E-1,1.636040369E0
1.481617820E1,-2.313998044E-1,-1.561944008E0,4.638215005E-1,1.645705119E0
1.482617696E1,-1.945622116E-1,-1.617534637E0,4.076355696E-1,1.679416421E0
1.483617573E1,-1.605584472E-1,-1.635064125E0,3.913259804E-1,1.688890088E0
1.484617449E1,-1.293204278E-1,-1.640841484E0,3.384181559E-1,1.680360496E0
1.485617326E1,-1.174350530E-1,-1.639684677E0,3.185543418E-1,1.674465198E0
1.486617196E1,-8.407748491E-2,-1.583674431E0,3.029099703E-1,1.614573683E0
1.487617073E1,-4.328925163E-2,-1.441740036E0,2.817563415E-1,1.469651294E0
1.488616946E1,1.022182405E-4,-1.350356102E0,2.306926847E-1,1.369919971E0
1.489616812E1,3.820712864E-2,-1.276084900E0,2.063488960E-1,1.293225550E0
1.490616686E1,4.480944946E-2,-1.185439110E0,1.534758210E-1,1.196172478E0
1.491616559E1,9.418752789E-2,-1.088042259E0,9.571009874E-2,1.096297255E0
1.492616432E1,1.048915833E-1,-9.599981308E-1,2.080976963E-2,9.659356614E-1
1.493616306E1,1.324748099E-1,-7.963829041E-1,-5.242526531E-2,8.090263986E-1
1.494616179E1,1.627699882E-1,-8.006668091E-1,-9.677380323E-2,8.227554784E-1
1.495616052E1,1.793147326E-1,-4.747629166E-1,-1.857179403E-1,5.404116520E-1
1.496615926E1,2.323747873E-1,-3.286209106E-1,-2.542131543E-1,4.760399905E-1
1.497615799E1,2.672363222E-1,-1.777696609E-1,-3.134040236E-1,4.485971314E-1
1.498615669E1,3.194698095E-1,-6.942749023E-4,-3.443205953E-1,4.697000251E-1
1.499615545E1,3.574723303E-1,1.667528152E-1,-3.852999210E-1,5.514063814E-1
1.500615415E1,4.217695296E-1,3.916015625E-1,-4.533241391E-1,7.326282106E-1
1.501615292E1,4.372848570E-1,5.732736588E-1,-4.988267422E-1,8.767490249E-1
1.502615169E1,4.588221610E-1,7.093858719E-1,-5.194258094E-1,9.917405215E-1
1.503615039E1,5.091106892E-1,8.527145386E-1,-5.963498950E-1,1.158425214E0
1.504614915E1,5.171476007E-1,9.937133789E-1,-6.432253122E-1,1.291761093E0
1.505614792E1,5.593976378E-1,1.120491982E0,-6.691522002E-1,1.419926993E0
1.506614668E1,5.736240149E-1,1.213950157E0,-7.027289271E-1,1.515436386E0
1.507614545E1,6.051829457E-1,1.381882668E0,-7.413495779E-1,1.680906095E0
1.508614422E1,6.301439404E-1,1.485501289E0,-7.584248781E-1,1.782976097E0
1.509614298E1,6.531987786E-1,1.531934738E0,-7.902878523E-1,1.843379390E0
1.510614175E1,6.715653539E-1,1.576299667E0,-8.108541369E-1,1.895575136E0
1.511614045E1,6.659294367E-1,1.613772392E0,-8.181607723E-1,1.927980912E0
1.512613921E1,6.795816422E-1,1.591558456E0,-8.127986789E-1,1.911944356E0
1.513613798E1,6.855769753E-1,1.605562210E0,-8.544288278E-1,1.943680638E0
1.514613668E1,6.690369248E-1,1.631639481E0,-8.763688207E-1,1.969233382E0
1.515613545E1,6.806558967E-1,1.626746178E0,-8.901910186E-1,1.975357088E0
1.516613421E1,7.183240056E-1,1.545443535E0,-9.600542188E-1,1.956039161E0
1.517613298E1,7.099181414E-1,1.500389099E0,-9.199608564E-1,1.897756358E0
1.518613174E1,7.268915176E-1,1.436670303E0,-9.753378630E-1,1.882465613E0
1.519613051E1,7.425299287E-1,1.359185219E0,-9.554037452E-1,1.819761377E0
1.520612928E1,7.582788467E-1,1.284800529E0,-9.629918933E-1,1.775683698E0
1.521612808E1,7.714456320E-1,1.201601028E0,-9.835500717E-1,1.733881235E0
1.522612684E1,7.405315042E-1,1.088091850E0,-9.213043451E-1,1.606590327E0
1.523612568E1,7.610105276E-1,9.109077454E-1,-8.995344043E-1,1.489312623E0
1.524612458E1,7.159268856E-1,7.273950577E-1,-8.650365472E-1,1.337887553E0
1.525612341E1,6.695690155E-1,5.827960968E-1,-8.301078081E-1,1.215340664E0
1.526612231E1,6.441196799E-1,3.669176102E-1,-7.778667212E-1,1.074520977E0
1.527612121E1,6.259674430E-1,2.663974762E-1,-7.181314826E-1,9.891995154E-1
1.528612004E1,5.799816251E-1,1.159477234E-1,-6.916059852E-1,9.100227463E-1
1.529611891E1,5.450865626E-1,-9.647655487E-2,-6.408313513E-1,8.468127935E-1
1.530611777E1,5.121464729E-1,-2.656383514E-1,-5.828973055E-1,8.201384104E-1
1.531611664E1,5.077462792E-1,-4.371156693E-1,-5.111505389E-1,8.427047323E-1
1.532611550E1,4.767047763E-1,-5.798616409E-1,-4.571955800E-1,8.789281909E-1
1.533611437E1,4.641380012E-1,-7.083101273E-1,-4.095695615E-1,9.406777058E-1
1.534611324E1,4.452529550E-1,-8.081445694E-1,-3.498669863E-1,9.867901231E-1
1.535611210E1,3.938252330E-1,-9.321680069E-1,-3.051903844E-1,1.056965788E0
1.536611090E1,3.599880338E-1,-1.085223198E0,-2.544713020E-1,1.171348120E0
1.537610977E1,3.009738922E-1,-1.214641571E0,-2.217017412E-1,1.270862342E0
1.538610864E1,2.484043539E-1,-1.365911484E0,-1.852122545E-1,1.400615038E0
1.539610744E1,2.029246837E-1,-1.462407112E0,-1.471168399E-1,1.483730553E0
1.540610630E1,1.773517579E-1,-1.489750862E0,-1.262270212E-1,1.505571167E0
1.541610517E1,1.365708411E-1,-1.510147095E0,-9.819740057E-2,1.519486285E0
1.542610403E1,1.213789731E-1,-1.545127869E0,-7.726770639E-2,1.551812902E0
1.543610290E1,1.174815223E-1,-1.587487221E0,-4.179996252E-2,1.592377098E0
1.544610177E1,9.805954248E-2,-1.553353310E0,-2.251589298E-2,1.556608218E0
1.545610063E1,8.583119512E-2,-1.545680046E0,-9.506940842E-5,1.548061306E0
1.546609950E1,7.824483514E-2,-1.523303032E0,4.315274954E-2,1.525921538E0
1.547609830E1,2.177278325E-2,-1.422351837E0,4.072993994E-2,1.423101448E0
1.548609716E1,-2.585961483E-2,-1.340897560E0,8.925390244E-2,1.344113554E0
1.549609603E1,-5.252754688E-2,-1.319608688E0,1.192613840E-1,1.326027719E0
1.550609483E1,-6.979147345E-2,-1.241142273E0,1.596096158E-1,1.253307712E0
1.551609366E1,-1.134410203E-1,-1.150924683E0,1.983621120E-1,1.173389968E0
1.552609246E1,-1.453126520E-1,-1.019559860E0,2.421736121E-1,1.057953748E0
1.553609120E1,-1.622715294E-1,-9.027891159E-1,2.916912436E-1,9.625196199E-1
1.554608993E1,-1.716416478E-1,-7.192478180E-1,3.197991848E-1,8.056362688E-1
1.555608866E1,-2.142706066E-1,-5.336236954E-1,3.734139204E-1,6.856413764E-1
1.556608739E1,-2.210173011E-1,-4.201555252E-1,3.896605968E-1,6.141780633E-1
1.557608613E1,-2.711897194E-1,-2.615270615E-1,4.137832224E-1,5.596041663E-1
1.558608486E1,-2.981632352E-1,-1.008405685E-1,4.360622466E-1,5.377921699E-1
1.559608359E1,-3.117241263E-1,3.320407867E-2,4.571142793E-1,5.542814322E-1
1.560608233E1,-3.862919509E-1,1.884975433E-1,4.819104075E-1,6.457479664E-1
1.561608103E1,-4.540975392E-1,3.650817871E-1,5.420639515E-1,7.958156909E-1
1.562607979E1,-5.022795200E-1,5.126771927E-1,5.917087197E-1,9.301837610E-1
1.563607856E1,-5.368499756E-1,6.050643921E-1,6.257575750E-1,1.022684388E0
1.564607726E1,-5.761532187E-1,7.308454514E-1,6.529514194E-1,1.136852304E0
1.565607602E1,-5.913700461E-1,8.902158737E-1,6.570000648E-1,1.254532550E0
1.566607479E1,-5.819428563E-1,1.013693810E0,6.460301876E-1,1.335510251E0
1.567607356E1,-5.839723945E-1,1.180324554E0,6.205793023E-1,1.455784490E0
1.568607232E1,-5.887046456E-1,1.349390984E0,6.097095609E-1,1.593478878E0
1.569607109E1,-6.137551665E-1,1.413117409E0,6.114585996E-1,1.657551759E0
1.570606985E1,-6.213508248E-1,1.424169540E0,6.169536710E-1,1.671815648E0
1.571606862E1,-6.686084270E-1,1.475955009E0,6.561492085E-1,1.748145361E0
1.572606732E1,-7.071546316E-1,1.499038696E0,6.742917895E-1,1.789372545E0
1.573606609E1,-6.907298565E-1,1.546206474E0,7.168594003E-1,1.838953397E0
1.574606485E1,-7.191856503E-1,1.576756477E0,7.568398714E-1,1.891083176E0
1.575606355E1,-6.785743833E-1,1.626760483E0,7.806092501E-1,1.927735372E0
1.576606232E1,-6.546190381E-1,1.573986053E0,8.043011427E-1,1.884902785E0
1.577606108E1,-6.502973437E-1,1.518945694E0,7.723311186E-1,1.823890899E0
1.578605978E1,-6.304432154E-1,1.492750168E0,7.924009562E-1,1.803790727E0
1.579605855E1,-6.434043646E-1,1.397200584E0,7.878696918E-1,1.728258459E0
1.580605732E1,-6.583432555E-1,1.332840919E0,7.851009965E-1,1.681149706E0
1.581605608E1,-6.798769832E-1,1.258974075E0,7.751920223E-1,1.627320222E0
1.582605485E1,-6.619844437E-1,1.166031837E0,7.776998281E-1,1.550055055E0
1.583605361E1,-6.519899368E-1,9.822282791E-1,8.074895740E-1,1.428951602E0
1.584605238E1,-6.472887397E-1,8.464307785E-1,8.283386827E-1,1.349656530E0
1.585605115E1,-6.453621387E-1,7.107696533E-1,8.282544613E-1,1.267947650E0
1.586604985E1,-6.238947511E-1,5.609102249E-1,8.456886411E-1,1.191240622E0
1.587604861E1,-6.033446193E-1,4.422502518E-1,8.307018280E-1,1.117888877E0
1.588604738E1,-5.956116915E-1,3.044738770E-1,8.068936467E-1,1.048110197E0
1.589604608E1,-5.698015690E-1,1.714916229E-1,7.911581397E-1,9.899567702E-1
1.590604484E1,-5.449680686E-1,-5.489540100E-2,7.429901958E-1,9.230591161E-1
1.591604358E1,-5.330528617E-1,-2.238979340E-1,6.992240548E-1,9.072981412E-1
1.592604231E1,-5.123956203E-1,-3.690471649E-1,6.582421064E-1,9.121555527E-1
1.593604104E1,-4.846696258E-1,-4.783630371E-1,6.118131876E-1,9.154513739E-1
1.594603978E1,-4.523316622E-1,-6.260576248E-1,5.898511410E-1,9.718417828E-1
1.595603851E1,-4.108840525E-1,-7.116012573E-1,5.571332574E-1,9.927736502E-1
1.596603724E1,-3.626736403E-1,-8.642778397E-1,5.642175078E-1,1.094006284E0
1.597603591E1,-3.471328914E-1,-1.026697159E0,5.524441004E-1,1.216471448E0
1.598603464E1,-3.163917661E-1,-1.134217262E0,5.355435610E-1,1.293583957E0
1.599603337E1,-2.610801160E-1,-1.213245392E0,4.938479662E-1,1.335669503E0
1.600603204E1,-2.365687937E-1,-1.285354614E0,4.676470160E-1,1.388090419E0
1.601603077E1,-2.026066184E-1,-1.324214935E0,4.284197092E-1,1.406462969E0
1.602602954E1,-1.473487765E-1,-1.356147766E0,3.648385108E-1,1.412074915E0
1.603602824E1,-1.163653806E-1,-1.431419373E0,3.469465077E-1,1.477455313E0
1.604602701E1,-8.553455770E-2,-1.480580330E0,3.149892986E-1,1.516130777E0
1.605602577E1,-5.512136221E-2,-1.503571510E0,3.077364564E-1,1.535730243E0
1.606602454E1,-2.030132152E-2,-1.459772110E0,2.816191316E-1,1.486827526E0
1.607602330E1,3.958747722E-3,-1.430575371E0,2.548666596E-1,1.453106527E0
1.608602207E1,3.441876918E-2,-1.370584488E0,2.480350137E-1,1.393272356E0
1.609602084E1,6.159808859E-2,-1.320556641E0,2.098630071E-1,1.338546468E0
1.610601960E1,9.522373229E-2,-1.314067841E0,1.400775313E-1,1.324939079E0
1.611601830E1,1.067830175E-1,-1.243387222E0,6.759238243E-2,1.249793234E0
1.612601707E1,1.347903907E-1,-1.134863853E0,-4.830837250E-3,1.142850713E0
1.613601583E1,1.506372839E-1,-1.026739120E0,-7.618212700E-2,1.040523200E0
1.614601453E1,1.859502196E-1,-8.926343918E-1,-1.309363842E-1,9.211503560E-1
1.615601330E1,2.077462375E-1,-7.563714981E-1,-2.160157561E-1,8.135841378E-1
1.616601206E1,2.496948391E-1,-6.155414581E-1,-2.566032410E-1,7.120983237E-1
