"Time (s)","Acceleration x (m/s^2)","Acceleration y (m/s^2)","Acceleration z (m/s^2)","Absolute acceleration (m/s^2)"
2.137075500E-2,2.370332032E-1,-9.766246796E0,5.411061049E-1,9.784097149E0
2.334375500E-2,2.370332032E-1,-9.778218269E0,5.435003638E-1,9.796179353E0
2.533025500E-2,2.346389294E-1,-9.768641472E0,5.626545548E-1,9.787644854E0
2.732125500E-2,2.202732861E-1,-9.768641472E0,5.913859010E-1,9.789004741E0
2.931700500E-2,2.154847383E-1,-9.768641472E0,6.057515144E-1,9.789776544E0
3.131360500E-2,2.178790122E-1,-9.763853073E0,6.249057055E-1,9.786255936E0
3.331077100E-2,2.274561077E-1,-9.749486923E0,6.344828010E-1,9.772758053E0
3.530834200E-2,2.394274771E-1,-9.754275322E0,6.416656375E-1,9.778289593E0
3.730621700E-2,2.561874092E-1,-9.744698524E0,6.416656375E-1,9.769161485E0
3.930432800E-2,2.729473412E-1,-9.732727051E0,6.536370516E-1,9.758469014E0
4.130262800E-2,2.873129845E-1,-9.725543976E0,6.560313106E-1,9.751878355E0
4.330108200E-2,3.136500120E-1,-9.708784103E0,6.871568561E-1,9.738123517E0
4.529958200E-2,3.304099143E-1,-9.692024231E0,6.991282701E-1,9.722822879E0
4.729819700E-2,3.399870098E-1,-9.682447433E0,7.063110471E-1,9.714126557E0
4.929691100E-2,3.471698463E-1,-9.677659035E0,7.206767201E-1,9.710663532E0
5.129571100E-2,3.543526828E-1,-9.668081284E0,7.230709791E-1,9.701556224E0
5.329458600E-2,3.639297783E-1,-9.663292885E0,7.158881426E-1,9.696606112E0
5.529352700E-2,3.519583941E-1,-9.658504486E0,6.871568561E-1,9.689312058E0
5.729252700E-2,3.447755575E-1,-9.648927689E0,6.632141471E-1,9.677836986E0
5.929157900E-2,3.423812985E-1,-9.636956215E0,6.584255695E-1,9.665488827E0
6.129062900E-2,3.399870098E-1,-9.634561539E0,6.464542150E-1,9.662208353E0
6.328972400E-2,3.351984620E-1,-9.624984741E0,6.105400920E-1,9.650152770E0
6.528886000E-2,3.256213665E-1,-9.620196342E0,6.153286099E-1,9.645353090E0
6.728803300E-2,3.232271075E-1,-9.610619545E0,6.273000240E-1,9.636492574E0
6.928724100E-2,3.040728867E-1,-9.613013268E0,6.033572555E-1,9.636727888E0
7.128648100E-2,2.921015322E-1,-9.605830193E0,5.913859010E-1,9.628449215E0
7.328575000E-2,2.849186957E-1,-9.605830193E0,5.865973234E-1,9.627941045E0
7.528504600E-2,2.657645047E-1,-9.608224869E0,5.674431324E-1,9.628634774E0
7.728436700E-2,2.394274771E-1,-9.601041794E0,5.482889414E-1,9.619664745E0
7.928371100E-2,2.322446555E-1,-9.591464996E0,5.530774593E-1,9.610204630E0
8.128307700E-2,2.226675600E-1,-9.593858719E0,5.458946824E-1,9.611956459E0
8.328334300E-2,2.106961906E-1,-9.603436470E0,5.411061049E-1,9.620976080E0
8.528360900E-2,2.035133541E-1,-9.598648071E0,5.435003638E-1,9.616176742E0
8.728387500E-2,1.963305324E-1,-9.589070320E0,5.387118459E-1,9.606197257E0
8.928380800E-2,1.939362586E-1,-9.581888199E0,5.315290093E-1,9.598578844E0
9.128367400E-2,2.035133541E-1,-9.593858719E0,5.411061049E-1,9.611261032E0
9.328354000E-2,2.178790122E-1,-9.610619545E0,5.458946824E-1,9.628576235E0
9.528340600E-2,2.154847383E-1,-9.608224869E0,5.506832004E-1,9.626404874E0
9.728327200E-2,2.106961906E-1,-9.610619545E0,5.602602959E-1,9.629241534E0
9.928313800E-2,1.604164094E-1,-9.648927689E0,5.746259689E-1,9.667354031E0
1.012830040E-1,1.268965602E-1,-9.694418907E0,5.698373914E-1,9.711981020E0
1.032829040E-1,9.098244458E-2,-9.718361855E0,5.889915824E-1,9.736618819E0
1.052828040E-1,2.394274808E-2,-9.739910126E0,6.799740195E-1,9.763646203E0
1.072826370E-1,-4.788549617E-3,-9.799766541E0,6.823683381E-1,9.823496003E0
1.092824700E-1,-6.703969836E-2,-9.816526413E0,7.230709791E-1,9.843348860E0
1.112823030E-1,-8.619388938E-2,-9.862017632E0,7.565908432E-1,9.891372547E0
1.132821360E-1,-1.053480953E-1,-9.902720451E0,7.422251701E-1,9.931055773E0
1.152819690E-1,-1.053480953E-1,-9.969759941E0,7.230709791E-1,9.996501545E0
1.172818020E-1,-1.125309169E-1,-9.988914490E0,7.518022656E-1,1.001779829E1
1.192816350E-1,-1.292908341E-1,-1.003680038E1,7.637736797E-1,1.006664931E1
1.212815010E-1,-1.508393139E-1,-1.010623360E1,7.326480746E-1,1.013387799E1
1.232813010E-1,-1.532335877E-1,-1.013257122E1,7.541965842E-1,1.016175637E1
1.252811010E-1,-1.652049571E-1,-1.019003391E1,7.541965842E-1,1.021924147E1
1.272809010E-1,-1.939362586E-1,-1.025946712E1,7.326480746E-1,1.028742194E1
1.292807010E-1,-2.011190802E-1,-1.027862167E1,7.637736797E-1,1.030892151E1
1.312805010E-1,-1.628106833E-1,-1.032411289E1,7.805336118E-1,1.035485621E1
1.332803010E-1,-1.125309169E-1,-1.038397026E1,7.326480746E-1,1.041039263E1
1.352801010E-1,-8.619388938E-2,-1.040551853E1,7.374366522E-1,1.043197288E1
1.372799010E-1,-5.027977005E-2,-1.045579815E1,7.733507752E-1,1.048447969E1
1.392796340E-1,-1.436564885E-2,-1.052523232E1,7.398309112E-1,1.055121185E1
1.412793670E-1,-2.633702382E-2,-1.072395706E1,6.584255695E-1,1.074418321E1
1.432791000E-1,-1.556278616E-1,-1.131294823E1,4.142095447E-1,1.132159826E1
1.452788330E-1,-1.029538140E-1,-1.155955887E1,7.948992252E-1,1.158731485E1
1.472785660E-1,-1.675992459E-2,-1.162659836E1,1.187560320E0,1.168710271E1
1.492782990E-1,-1.197137404E-2,-1.172715759E1,1.194743156E0,1.178786578E1
1.512780990E-1,2.873129770E-2,-1.189236259E1,1.084606528E0,1.194175384E1
1.532778990E-1,2.346389294E-1,-1.212700176E1,1.003201127E0,1.217068772E1
1.552776650E-1,2.825244367E-1,-1.217488766E1,1.003201127E0,1.221941578E1
1.572774310E-1,3.184385598E-1,-1.222277260E1,9.624984860E-1,1.226474527E1
1.592771970E-1,3.088614643E-1,-1.221319580E1,9.217957854E-1,1.225182658E1
1.612769630E-1,3.040728867E-1,-1.219883060E1,9.289786220E-1,1.223792996E1
1.632766960E-1,3.280156553E-1,-1.217009926E1,9.217957854E-1,1.220936598E1
1.652764620E-1,3.375927508E-1,-1.215812778E1,8.834874034E-1,1.219485917E1
1.672762950E-1,3.280156553E-1,-1.213897324E1,8.954587579E-1,1.217637515E1
1.692761280E-1,3.256213665E-1,-1.211981869E1,9.098244309E-1,1.215828174E1
1.712759610E-1,3.495641351E-1,-1.210066509E1,8.595446348E-1,1.213619000E1
1.732757940E-1,3.471698463E-1,-1.207432747E1,8.619389534E-1,1.211003094E1
1.752756270E-1,3.447755575E-1,-1.203841400E1,9.050358534E-1,1.207730813E1
1.772754600E-1,3.471698463E-1,-1.203601933E1,8.475732803E-1,1.207081889E1
1.792752930E-1,3.567469418E-1,-1.202165413E1,8.332076073E-1,1.205577336E1
1.812751260E-1,3.328042030E-1,-1.198573971E1,8.739103079E-1,1.202216429E1
1.832750260E-1,3.351984620E-1,-1.198334503E1,8.332076073E-1,1.201695265E1
1.852748920E-1,3.304099143E-1,-1.196658516E1,8.164477348E-1,1.199895487E1
1.872747580E-1,3.232271075E-1,-1.194024849E1,8.475732803E-1,1.197465616E1
1.892746240E-1,3.280156553E-1,-1.193306541E1,8.212362528E-1,1.196578762E1
1.912744900E-1,3.280156553E-1,-1.190194035E1,8.020820618E-1,1.193344518E1
1.932743560E-1,3.256213665E-1,-1.187560272E1,8.284190893E-1,1.190891462E1
1.952742220E-1,3.256213665E-1,-1.184926605E1,8.188419938E-1,1.188198794E1
1.972740880E-1,3.280156553E-1,-1.182292938E1,7.733507752E-1,1.185273491E1
1.992740210E-1,3.328042030E-1,-1.179898643E1,7.972934842E-1,1.183057549E1
2.012739540E-1,3.351984620E-1,-1.176546669E1,7.996878028E-1,1.179737534E1
2.032738870E-1,3.232271075E-1,-1.174631214E1,7.470137477E-1,1.177447894E1
2.052738200E-1,3.184385598E-1,-1.172476387E1,7.637736797E-1,1.175392875E1
2.072737530E-1,3.304099143E-1,-1.169124413E1,7.948992252E-1,1.172289319E1
2.092736860E-1,3.399870098E-1,-1.167208958E1,7.470137477E-1,1.170091004E1
2.112736190E-1,3.351984620E-1,-1.164335823E1,7.565908432E-1,1.167272798E1
2.132735520E-1,3.232271075E-1,-1.157153034E1,7.853221297E-1,1.160265147E1
2.152735180E-1,3.304099143E-1,-1.153082752E1,7.494080067E-1,1.155987744E1
2.172734180E-1,3.280156553E-1,-1.150927925E1,7.470137477E-1,1.153815985E1
2.192733180E-1,3.280156553E-1,-1.143745041E1,7.948992252E-1,1.146973107E1
2.212732180E-1,3.399870098E-1,-1.139435387E1,7.446194887E-1,1.142371872E1
2.232731180E-1,3.328042030E-1,-1.137998772E1,7.278595567E-1,1.140809619E1
2.252730180E-1,3.304099143E-1,-1.131055450E1,7.613793612E-1,1.134096612E1
2.272729180E-1,3.256213665E-1,-1.126027489E1,7.134938836E-1,1.128755480E1
2.292728180E-1,3.184385598E-1,-1.123633194E1,7.039167881E-1,1.126286187E1
2.312727180E-1,3.136500120E-1,-1.116689777E1,7.278595567E-1,1.119498824E1
2.332725510E-1,3.136500120E-1,-1.112858963E1,7.230709791E-1,1.115646517E1
2.352723840E-1,3.184385598E-1,-1.106633854E1,7.182824612E-1,1.109419585E1
2.372722170E-1,3.136500120E-1,-1.103521252E1,7.398309112E-1,1.106443136E1
2.392720500E-1,3.112557232E-1,-1.098732662E1,7.374366522E-1,1.101644404E1
2.412718830E-1,3.016786277E-1,-1.092268181E1,7.039167881E-1,1.094949710E1
2.432717160E-1,2.921015322E-1,-1.088916206E1,7.206767201E-1,1.091689281E1
2.452715820E-1,2.992843390E-1,-1.082691097E1,7.565908432E-1,1.085743994E1
2.472714480E-1,2.992843390E-1,-1.079339123E1,6.919454336E-1,1.081968825E1
2.492712480E-1,2.968900800E-1,-1.076465988E1,7.039167881E-1,1.079173503E1
2.512710480E-1,2.921015322E-1,-1.071677399E1,7.446194887E-1,1.074658207E1
2.532708480E-1,2.992843390E-1,-1.066888809E1,6.632141471E-1,1.069367090E1
2.552706480E-1,2.921015322E-1,-1.063776302E1,6.727912426E-1,1.066301897E1
2.572704480E-1,2.729473412E-1,-1.058508873E1,6.967339516E-1,1.061150517E1
2.592702480E-1,2.801301479E-1,-1.053959751E1,6.608198285E-1,1.056400830E1
2.612700480E-1,2.681587934E-1,-1.048213482E1,6.847625971E-1,1.050789985E1
2.632697810E-1,2.657645047E-1,-1.045819283E1,7.158881426E-1,1.048603470E1
2.652695140E-1,2.729473412E-1,-1.042706680E1,6.823683381E-1,1.045293494E1
2.672692470E-1,2.609759569E-1,-1.040312386E1,6.775797606E-1,1.042843271E1
2.692689800E-1,2.657645047E-1,-1.034326744E1,7.063110471E-1,1.037076118E1
2.712687130E-1,2.609759569E-1,-1.030735302E1,6.943396926E-1,1.033400902E1
2.732684460E-1,2.442160249E-1,-1.024749660E1,6.656084061E-1,1.027199409E1
2.752681790E-1,2.370332032E-1,-1.021397591E1,6.847625971E-1,1.023964786E1
2.772679790E-1,2.370332032E-1,-1.016369629E1,6.727912426E-1,1.018869742E1
2.792677120E-1,2.370332032E-1,-1.010862827E1,6.488484740E-1,1.013220384E1
2.812674450E-1,2.226675600E-1,-1.006313705E1,6.727912426E-1,1.008806008E1
2.832671780E-1,2.106961906E-1,-9.988914490E0,6.847625971E-1,1.001457465E1
2.852669110E-1,2.083019018E-1,-9.931451797E0,6.512427330E-1,9.954960652E0
2.872666440E-1,1.987248063E-1,-9.895537376E0,6.727912426E-1,9.920372955E0
2.892663770E-1,2.154847383E-1,-9.818921089E0,7.039167881E-1,9.846478755E0
2.912661100E-1,1.987248063E-1,-9.775823593E0,6.440598965E-1,9.799032178E0
2.932659100E-1,1.891477108E-1,-9.735121727E0,6.512427330E-1,9.758713491E0
2.952656430E-1,1.843591630E-1,-9.653716087E0,7.039167881E-1,9.681101251E0
2.972653760E-1,1.939362586E-1,-9.586676598E0,6.464542150E-1,9.610404909E0
2.992651090E-1,1.843591630E-1,-9.555550575E0,6.368771195E-1,9.578525333E0
3.012648420E-1,1.867534369E-1,-9.486116409E0,6.943396926E-1,9.513326915E0
3.032645750E-1,1.819648892E-1,-9.438231468E0,6.680026650E-1,9.463590863E0
3.052643080E-1,1.819648892E-1,-9.402317047E0,6.536370516E-1,9.426766066E0
3.072640410E-1,1.795706153E-1,-9.330489159E0,6.991282701E-1,9.358368121E0
3.092638410E-1,1.699935049E-1,-9.270631790E0,6.751855016E-1,9.296740668E0
3.112635740E-1,1.604164094E-1,-9.213169098E0,6.751855016E-1,9.239269111E0
3.132633070E-1,1.652049571E-1,-9.191620827E0,7.087053657E-1,9.220382280E0
3.152630400E-1,1.652049571E-1,-9.136552811E0,7.015225291E-1,9.164934468E0
3.172627730E-1,1.652049571E-1,-9.076695442E0,6.703969240E-1,9.102918481E0
3.192625060E-1,1.604164094E-1,-9.033598900E0,7.063110471E-1,9.062588913E0
3.212622390E-1,1.604164094E-1,-8.988107681E0,7.278595567E-1,9.018957404E0
3.232620390E-1,1.652049571E-1,-8.942616463E0,6.943396926E-1,8.971052864E0
3.252618390E-1,1.580221355E-1,-8.894730568E0,7.110996246E-1,8.924509261E0
3.272615720E-1,1.723877788E-1,-8.832479477E0,7.278595567E-1,8.864095599E0
3.292613050E-1,1.628106833E-1,-8.798959732E0,6.823683381E-1,8.826880889E0
3.312610380E-1,1.532335877E-1,-8.767834663E0,6.991282701E-1,8.796998667E0
3.332607710E-1,1.652049571E-1,-8.705583572E0,7.470137477E-1,8.739136545E0
3.352605040E-1,1.747820675E-1,-8.652909279E0,6.943396926E-1,8.682482097E0
3.372602370E-1,1.771763414E-1,-8.616994858E0,6.991282701E-1,8.647125081E0
3.392600370E-1,1.652049571E-1,-8.561926842E0,7.565908432E-1,8.596878133E0
3.412597700E-1,1.915419847E-1,-8.511647224E0,7.134938836E-1,8.543646781E0
3.432595030E-1,1.963305324E-1,-8.480521202E0,6.943396926E-1,8.511162855E0
3.452592360E-1,1.939362586E-1,-8.396721840E0,7.422251701E-1,8.431693017E0
3.472589690E-1,2.035133541E-1,-8.346442223E0,7.182824612E-1,8.379764027E0
3.492587020E-1,2.154847383E-1,-8.274613380E0,7.015225291E-1,8.307093001E0
3.512584350E-1,2.106961906E-1,-8.250671387E0,7.398309112E-1,8.286454066E0
3.532581680E-1,1.963305324E-1,-8.195602417E0,7.039167881E-1,8.228119074E0
3.552579680E-1,2.083019018E-1,-8.121379852E0,6.703969240E-1,8.151664396E0
3.572577010E-1,2.035133541E-1,-8.075888634E0,6.991282701E-1,8.108648176E0
3.592574340E-1,2.202732861E-1,-8.023215294E0,7.015225291E-1,8.056837955E0
3.612571670E-1,2.226675600E-1,-7.960963726E0,6.560313106E-1,7.991051331E0
3.632569000E-1,2.298503816E-1,-7.920260906E0,6.823683381E-1,7.952923398E0
3.652566330E-1,2.298503816E-1,-7.869981289E0,7.063110471E-1,7.904954901E0
3.672563660E-1,2.370332032E-1,-7.831672668E0,6.464542150E-1,7.861881745E0
3.692560990E-1,2.322446555E-1,-7.798152924E0,6.560313106E-1,7.829144505E0
3.712558990E-1,2.130904645E-1,-7.745479107E0,6.871568561E-1,7.778819877E0
3.732556320E-1,2.274561077E-1,-7.728719234E0,6.416656375E-1,7.758644990E0
3.752553650E-1,2.322446555E-1,-7.702382088E0,6.416656375E-1,7.732552114E0
3.772550980E-1,2.322446555E-1,-7.654496670E0,6.847625971E-1,7.688573123E0
3.792548310E-1,2.418217510E-1,-7.611399651E0,6.392713785E-1,7.642025274E0
3.812545640E-1,2.490045726E-1,-7.592245579E0,6.225114465E-1,7.621792224E0
3.832542970E-1,2.178790122E-1,-7.551542759E0,6.775797606E-1,7.585010457E0
3.852540300E-1,2.202732861E-1,-7.522811413E0,6.296942830E-1,7.552332538E0
3.872538300E-1,2.083019018E-1,-7.520417213E0,6.201171875E-1,7.548815144E0
3.892535630E-1,2.035133541E-1,-7.482108593E0,6.584255695E-1,7.513780068E0
3.912532960E-1,2.202732861E-1,-7.467742920E0,6.344828010E-1,7.497884573E0
3.932530290E-1,2.154847383E-1,-7.431828976E0,6.249057055E-1,7.461167652E0
3.952527620E-1,2.130904645E-1,-7.417463303E0,6.416656375E-1,7.448214832E0
3.972524950E-1,2.035133541E-1,-7.403097630E0,6.392713785E-1,7.433433937E0
3.992522280E-1,2.226675600E-1,-7.374366283E0,5.842030644E-1,7.400821045E0
4.012520280E-1,2.226675600E-1,-7.357606411E0,6.081457734E-1,7.386054036E0
4.032518280E-1,1.987248063E-1,-7.340846539E0,6.344828010E-1,7.370894646E0
4.052515610E-1,1.987248063E-1,-7.312115192E0,5.770202279E-1,7.337538585E0
4.072512940E-1,1.915419847E-1,-7.297749519E0,5.889915824E-1,7.323984398E0
4.092510270E-1,2.035133541E-1,-7.276201248E0,6.320885420E-1,7.306439503E0
4.112507600E-1,2.083019018E-1,-7.266623974E0,5.842030644E-1,7.293045103E0
4.132504930E-1,2.059076279E-1,-7.252258301E0,5.865973234E-1,7.278856011E0
4.152502260E-1,2.106961906E-1,-7.223526955E0,6.105400920E-1,7.252344018E0
4.172500260E-1,2.083019018E-1,-7.230710030E0,5.554717779E-1,7.255005590E0
4.192498260E-1,2.011190802E-1,-7.223526955E0,5.506832004E-1,7.247278285E0
4.212495590E-1,2.059076279E-1,-7.173247337E0,5.985686779E-1,7.201122119E0
4.232492920E-1,2.130904645E-1,-7.158881664E0,5.554717779E-1,7.183560616E0
4.252490250E-1,2.083019018E-1,-7.149304390E0,5.411061049E-1,7.172777618E0
4.272487580E-1,2.011190802E-1,-7.118178844E0,5.889915824E-1,7.145336243E0
4.292484910E-1,2.130904645E-1,-7.115784645E0,5.578660369E-1,7.140799197E0
4.312482240E-1,2.083019018E-1,-7.091842175E0,5.243461728E-1,7.114250067E0
4.332480240E-1,1.963305324E-1,-7.075081825E0,5.482889414E-1,7.099010443E0
4.352477570E-1,2.035133541E-1,-7.079870701E0,5.578660369E-1,7.104730913E0
4.372474900E-1,2.106961906E-1,-7.101418972E0,5.243461728E-1,7.123867153E0
4.392472230E-1,2.035133541E-1,-7.087053299E0,5.458946824E-1,7.110959369E0
4.412469560E-1,2.035133541E-1,-7.091842175E0,5.602602959E-1,7.116848650E0
4.432466890E-1,2.083019018E-1,-7.091842175E0,5.291347504E-1,7.114604606E0
4.452464220E-1,1.963305324E-1,-7.079870701E0,5.435003638E-1,7.103415197E0
4.472461550E-1,1.987248063E-1,-7.087053299E0,5.674431324E-1,7.112510648E0
4.492459550E-1,2.130904645E-1,-7.094236374E0,5.219519138E-1,7.116602495E0
4.512456880E-1,2.154847383E-1,-7.087053299E0,5.363175869E-1,7.110583288E0
4.532454210E-1,2.035133541E-1,-7.094236374E0,5.842030644E-1,7.121158658E0
4.552451540E-1,2.370332032E-1,-7.132544518E0,5.267404318E-1,7.155894879E0
4.572448870E-1,2.370332032E-1,-7.134938717E0,5.147690773E-1,7.157410316E0
4.592445870E-1,2.298503816E-1,-7.132544518E0,5.650488734E-1,7.158582452E0
4.612443200E-1,2.298503816E-1,-7.144515991E0,5.219519138E-1,7.167243106E0
4.632440530E-1,2.322446555E-1,-7.146910191E0,4.980091453E-1,7.168003625E0
4.652438530E-1,2.394274771E-1,-7.154093266E0,5.482889414E-1,7.179066564E0
4.672435860E-1,2.537931204E-1,-7.173247337E0,5.243461728E-1,7.196862318E0
4.692433190E-1,2.537931204E-1,-7.182824612E0,5.027977228E-1,7.204872372E0
4.712430520E-1,2.537931204E-1,-7.190007210E0,5.339232683E-1,7.214269795E0
4.732427850E-1,2.729473412E-1,-7.206767082E0,5.219519138E-1,7.230797040E0
4.752425180E-1,2.705530524E-1,-7.230710030E0,4.812492430E-1,7.251756154E0
4.772422510E-1,2.657645047E-1,-7.235498428E0,5.004034638E-1,7.257649200E0
4.792419840E-1,2.585816681E-1,-7.261835575E0,5.147690773E-1,7.284648763E0
4.812417840E-1,2.681587934E-1,-7.288172722E0,4.549122155E-1,7.307278282E0
4.832415170E-1,2.705530524E-1,-7.295355320E0,4.788549542E-1,7.316058383E0
4.852412500E-1,2.801301479E-1,-7.319298267E0,5.219519138E-1,7.343230476E0
4.872409830E-1,2.777358890E-1,-7.336058140E0,4.549122155E-1,7.355394713E0
4.892407160E-1,2.681587934E-1,-7.348029613E0,4.668835998E-1,7.367728865E0
4.912404490E-1,2.585816681E-1,-7.391126156E0,4.956148863E-1,7.412236130E0
4.932401820E-1,2.633702159E-1,-7.417463303E0,4.477293789E-1,7.435629584E0
4.952399820E-1,2.609759569E-1,-7.434223175E0,4.549122155E-1,7.452699363E0
4.972397820E-1,2.490045726E-1,-7.458166122E0,5.219519138E-1,7.480553388E0
4.992395150E-1,2.466102988E-1,-7.515628815E0,4.716721475E-1,7.534452053E0
5.012392480E-1,2.418217510E-1,-7.532388687E0,4.477293789E-1,7.549557516E0
5.032389810E-1,2.226675600E-1,-7.563514233E0,4.932205975E-1,7.582848736E0
5.052387140E-1,2.274561077E-1,-7.606611252E0,4.884320498E-1,7.625669602E0
5.072384470E-1,2.202732861E-1,-7.640130997E0,4.764606953E-1,7.658141861E0
5.092381800E-1,2.130904645E-1,-7.668862343E0,5.171633363E-1,7.689233713E0
5.112379800E-1,2.106961906E-1,-7.721536160E0,4.812492430E-1,7.739387210E0
5.132377130E-1,2.035133541E-1,-7.795758724E0,4.788549542E-1,7.813102702E0
5.152374460E-1,2.035133541E-1,-7.817307472E0,5.147690773E-1,7.836880821E0
5.172371790E-1,2.106961906E-1,-7.874769688E0,5.219519138E-1,7.894860627E0
5.192369450E-1,2.202732861E-1,-7.932232380E0,4.932205975E-1,7.950603588E0
5.212366780E-1,2.059076279E-1,-7.937020779E0,5.267404318E-1,7.957144731E0
5.232364110E-1,1.939362586E-1,-7.992089272E0,5.626545548E-1,8.014217513E0
5.252361440E-1,1.987248063E-1,-8.068706512E0,5.123748183E-1,8.087400342E0
5.272359440E-1,1.963305324E-1,-8.085466385E0,5.291347504E-1,8.105140093E0
5.292356770E-1,1.843591630E-1,-8.130957603E0,5.698373914E-1,8.152985619E0
5.312354100E-1,1.795706153E-1,-8.202785492E0,5.339232683E-1,8.222104931E0
5.332351430E-1,1.771763414E-1,-8.229122162E0,5.411061049E-1,8.248796205E0
5.352348760E-1,1.891477108E-1,-8.279402733E0,5.913859010E-1,8.302651610E0
5.372346090E-1,1.963305324E-1,-8.348835945E0,5.506832004E-1,8.369280692E0
5.392343420E-1,1.891477108E-1,-8.372778893E0,5.554717779E-1,8.393315920E0
5.412340750E-1,1.819648892E-1,-8.413481712E0,6.249057055E-1,8.438619134E0
5.432338750E-1,1.819648892E-1,-8.490098000E0,5.961744189E-1,8.512948913E0
5.452336410E-1,1.843591630E-1,-8.526012421E0,5.770202279E-1,8.547504223E0
5.472334070E-1,1.771763414E-1,-8.573898315E0,6.249057055E-1,8.598466777E0
5.492331730E-1,1.963305324E-1,-8.652909279E0,6.081457734E-1,8.676475433E0
5.512329390E-1,2.083019018E-1,-8.717555046E0,5.937801600E-1,8.740236298E0
5.532327050E-1,1.915419847E-1,-8.722343445E0,6.296942830E-1,8.747141155E0
5.552324710E-1,2.106961906E-1,-8.765439987E0,6.560313106E-1,8.792480204E0
5.572322370E-1,2.011190802E-1,-8.839662552E0,6.201171875E-1,8.863669006E0
5.592320700E-1,1.987248063E-1,-8.854028702E0,6.464542150E-1,8.879820880E0
5.612318360E-1,2.059076279E-1,-8.894730568E0,6.727912426E-1,8.922515222E0
5.632316020E-1,2.202732861E-1,-8.964164734E0,6.177229285E-1,8.988122791E0
5.652313680E-1,2.178790122E-1,-8.978530884E0,6.488484740E-1,9.004581747E0
5.672311340E-1,2.035133541E-1,-9.045570374E0,7.134938836E-1,9.075948137E0
5.692309000E-1,2.083019018E-1,-9.131764412E0,6.584255695E-1,9.157840094E0
5.712306660E-1,2.083019018E-1,-9.146129608E0,6.703969240E-1,9.173031589E0
5.732304660E-1,2.130904645E-1,-9.198803902E0,7.422251701E-1,9.231159135E0
5.752302990E-1,2.083019018E-1,-9.282603264E0,7.039167881E-1,9.311584821E0
5.772300650E-1,2.154847383E-1,-9.311334610E0,7.015225291E-1,9.340209834E0
5.792298310E-1,2.035133541E-1,-9.366402626E0,7.733507752E-1,9.400478034E0
5.812295970E-1,2.059076279E-1,-9.447808266E0,7.398309112E-1,9.478967705E0
5.832293630E-1,2.106961906E-1,-9.476539612E0,7.302538157E-1,9.506969366E0
5.852291290E-1,2.059076279E-1,-9.529213905E0,7.877163887E-1,9.563932910E0
5.872288950E-1,2.059076279E-1,-9.608224869E0,7.829278708E-1,9.642269397E0
5.892287280E-1,2.130904645E-1,-9.641744614E0,7.757450342E-1,9.675248167E0
5.912284940E-1,2.130904645E-1,-9.708784103E0,8.236305118E-1,9.745987048E0
5.932282600E-1,2.298503816E-1,-9.790189743E0,8.379961848E-1,9.828676615E0
5.952280260E-1,2.226675600E-1,-9.866806030E0,7.972934842E-1,9.901470546E0
5.972277920E-1,2.202732861E-1,-9.885960579E0,8.212362528E-1,9.922457653E0
5.992275580E-1,2.059076279E-1,-9.957788467E0,8.356019258E-1,9.994907688E0
6.012273240E-1,2.226675600E-1,-1.005356026E1,8.523618579E-1,1.009208479E1
6.032270900E-1,2.226675600E-1,-1.008468533E1,8.643332124E-1,1.012410642E1
6.052268900E-1,2.035133541E-1,-1.013735962E1,8.571503758E-1,1.017556802E1
6.072266230E-1,2.083019018E-1,-1.019482231E1,8.715160489E-1,1.023412585E1
6.092263560E-1,2.154847383E-1,-1.022115898E1,8.715160489E-1,1.026050997E1
6.112260890E-1,2.106961906E-1,-1.028101635E1,8.691217303E-1,1.031983831E1
6.132258220E-1,2.178790122E-1,-1.034326744E1,8.834874034E-1,1.038321735E1
6.152255550E-1,2.130904645E-1,-1.037918091E1,8.739103079E-1,1.041808635E1
6.172252880E-1,2.083019018E-1,-1.044143200E1,8.834874034E-1,1.048081303E1
6.192250210E-1,2.106961906E-1,-1.049650097E1,8.954587579E-1,1.053673440E1
6.212248210E-1,2.202732861E-1,-1.054438591E1,9.050358534E-1,1.058544682E1
6.232245540E-1,2.274561077E-1,-1.057072353E1,8.906702399E-1,1.061061854E1
6.252242870E-1,2.298503816E-1,-1.062818623E1,8.858816624E-1,1.066751892E1
6.272240200E-1,2.346389294E-1,-1.064973450E1,9.026415944E-1,1.069049401E1
6.292237530E-1,2.346389294E-1,-1.069522572E1,9.002473354E-1,1.073561148E1
6.312234860E-1,2.370332032E-1,-1.074311066E1,8.882759809E-1,1.078237662E1
6.332232520E-1,2.513988614E-1,-1.079817963E1,9.217957854E-1,1.084036863E1
6.352229850E-1,2.466102988E-1,-1.082691097E1,9.194015265E-1,1.086867595E1
6.372227850E-1,2.466102988E-1,-1.087719059E1,9.241901040E-1,1.091916751E1
6.392225180E-1,2.585816681E-1,-1.093225861E1,9.409499764E-1,1.097572456E1
6.412222510E-1,2.585816681E-1,-1.096577835E1,9.481328130E-1,1.100972821E1
6.432219840E-1,2.561874092E-1,-1.102324104E1,9.481328130E-1,1.106690702E1
6.452217170E-1,2.490045726E-1,-1.107591534E1,9.505270720E-1,1.111941570E1
6.472214500E-1,2.585816681E-1,-1.110704041E1,9.529213905E-1,1.115084168E1
6.492211830E-1,2.609759569E-1,-1.116450310E1,9.577099085E-1,1.120854344E1
6.512209830E-1,2.466102988E-1,-1.121717739E1,9.624984860E-1,1.126109624E1
6.532207830E-1,2.585816681E-1,-1.124351406E1,9.577099085E-1,1.128719102E1
6.552205160E-1,2.657645047E-1,-1.129379463E1,9.577099085E-1,1.133744399E1
6.572202490E-1,2.657645047E-1,-1.134167957E1,9.529213905E-1,1.138474354E1
6.592199820E-1,2.753416002E-1,-1.137041092E1,9.601042271E-1,1.141419544E1
6.612197150E-1,2.873129845E-1,-1.141829681E1,9.696813226E-1,1.146299842E1
6.632194480E-1,2.801301479E-1,-1.147815323E1,9.816526771E-1,1.152345939E1
6.652191810E-1,2.849186957E-1,-1.150209618E1,9.840469360E-1,1.154762934E1
6.672189810E-1,2.753416002E-1,-1.156195259E1,9.984126091E-1,1.160824657E1
6.692187810E-1,2.777358890E-1,-1.159068394E1,9.768640995E-1,1.163509153E1
6.712185140E-1,2.849186957E-1,-1.163856983E1,9.648927450E-1,1.168197348E1
6.732182470E-1,2.825244367E-1,-1.166251278E1,9.696813226E-1,1.170616531E1
6.752179800E-1,2.921015322E-1,-1.169363785E1,9.792584181E-1,1.173820414E1
6.772177130E-1,3.064671755E-1,-1.174152374E1,9.768640995E-1,1.178607506E1
6.792174460E-1,3.016786277E-1,-1.176307201E1,9.672870040E-1,1.180663023E1
6.812171790E-1,2.921015322E-1,-1.179419804E1,9.672870040E-1,1.183740152E1
6.832169790E-1,3.064671755E-1,-1.183011150E1,9.624984860E-1,1.187315727E1
6.852167120E-1,3.016786277E-1,-1.183968925E1,9.672870040E-1,1.188296662E1
6.872164450E-1,3.088614643E-1,-1.185884285E1,9.577099085E-1,1.190146031E1
6.892161780E-1,3.136500120E-1,-1.189475727E1,9.577099085E-1,1.193737137E1
6.912159110E-1,3.088614643E-1,-1.191630554E1,9.553156495E-1,1.195852671E1
6.932156440E-1,2.968900800E-1,-1.192588329E1,9.337671995E-1,1.196606691E1
6.952153770E-1,3.040728867E-1,-1.194982529E1,9.122186899E-1,1.198844976E1
6.972151100E-1,3.136500120E-1,-1.196179676E1,9.146129489E-1,1.200081143E1
6.992149100E-1,3.184385598E-1,-1.198095131E1,9.217957854E-1,1.202057839E1
7.012146430E-1,3.040728867E-1,-1.198573971E1,9.313728809E-1,1.202571711E1
7.032143760E-1,3.040728867E-1,-1.200728798E1,9.241901040E-1,1.204664071E1
7.052141090E-1,3.256213665E-1,-1.204080772E1,9.217957854E-1,1.208042993E1
7.072138420E-1,3.136500120E-1,-1.205517387E1,8.954587579E-1,1.209245384E1
7.092135750E-1,2.992843390E-1,-1.207911682E1,8.786988258E-1,1.211473260E1
7.112133080E-1,3.088614643E-1,-1.210066509E1,8.763045669E-1,1.213628447E1
7.132130410E-1,3.232271075E-1,-1.211742496E1,8.691217303E-1,1.215285300E1
7.152128410E-1,3.256213665E-1,-1.212460804E1,8.763045669E-1,1.216059452E1
7.172125740E-1,3.232271075E-1,-1.213897324E1,8.691217303E-1,1.217433857E1
7.192123070E-1,3.184385598E-1,-1.217728138E1,8.595446348E-1,1.221173214E1
7.212120400E-1,3.256213665E-1,-1.218925285E1,8.475732803E-1,1.222302315E1
7.232117730E-1,3.256213665E-1,-1.219404125E1,8.499675393E-1,1.222796451E1
7.252115060E-1,3.112557232E-1,-1.221080112E1,8.427847624E-1,1.224380784E1
7.272112390E-1,3.040728867E-1,-1.222995567E1,8.379961848E-1,1.226240244E1
7.292109720E-1,3.088614643E-1,-1.224911022E1,8.379961848E-1,1.228162588E1
7.312107720E-1,3.064671755E-1,-1.225150394E1,8.427847624E-1,1.228428090E1
7.332105050E-1,3.136500120E-1,-1.226826382E1,8.308133483E-1,1.230036277E1
7.352102380E-1,3.112557232E-1,-1.226347542E1,8.188419938E-1,1.229472292E1
7.372099710E-1,3.016786277E-1,-1.228023529E1,8.212362528E-1,1.231136133E1
7.392097040E-1,3.088614643E-1,-1.228502369E1,8.332076073E-1,1.231711969E1
7.412094370E-1,3.112557232E-1,-1.228741837E1,8.260248303E-1,1.231908468E1
7.432091700E-1,3.088614643E-1,-1.230417824E1,8.332076073E-1,1.233622440E1
7.452089700E-1,2.968900800E-1,-1.230417824E1,8.308133483E-1,1.233576899E1
7.472087700E-1,2.992843390E-1,-1.229938984E1,8.427847624E-1,1.233186311E1
7.492085030E-1,2.921015322E-1,-1.229699516E1,8.356019258E-1,1.232881357E1
7.512082360E-1,2.921015322E-1,-1.229220676E1,8.379961848E-1,1.232420010E1
7.532079690E-1,2.849186957E-1,-1.227544689E1,8.427847624E-1,1.230764239E1
7.552077020E-1,2.873129845E-1,-1.227065849E1,8.427847624E-1,1.230292220E1
7.572074350E-1,2.944957912E-1,-1.226587009E1,8.475732803E-1,1.229864535E1
7.592071680E-1,2.777358890E-1,-1.223235035E1,8.403904438E-1,1.226432992E1
7.612069680E-1,2.849186957E-1,-1.222995567E1,8.356019258E-1,1.226177903E1
7.632067010E-1,2.873129845E-1,-1.222516727E1,8.547561169E-1,1.225837965E1
7.652064340E-1,2.801301479E-1,-1.221080112E1,8.499675393E-1,1.224355266E1
7.672061670E-1,2.801301479E-1,-1.220840740E1,8.451790214E-1,1.224083379E1
7.692059000E-1,2.873129845E-1,-1.217009926E1,8.379961848E-1,1.220229906E1
7.712056330E-1,2.777358890E-1,-1.213897324E1,8.403904438E-1,1.217119816E1
7.732053660E-1,2.825244367E-1,-1.212700176E1,8.451790214E-1,1.215970063E1
7.752050990E-1,2.753416002E-1,-1.211024189E1,8.595446348E-1,1.214382924E1
7.772048990E-1,2.777358890E-1,-1.208629894E1,8.571503758E-1,1.211983771E1
7.792046320E-1,2.753416002E-1,-1.207672215E1,8.595446348E-1,1.211040246E1
7.812043650E-1,2.849186957E-1,-1.207193375E1,8.571503758E-1,1.210567924E1
7.832040980E-1,2.849186957E-1,-1.203841400E1,8.667274714E-1,1.207293696E1
7.852038310E-1,2.849186957E-1,-1.202404785E1,8.810931444E-1,1.205965300E1
7.872035640E-1,2.801301479E-1,-1.200968266E1,8.715160489E-1,1.204452119E1
7.892032970E-1,2.849186957E-1,-1.197616291E1,8.834874034E-1,1.201208586E1
7.912030300E-1,2.801301479E-1,-1.195700836E1,8.834874034E-1,1.199287588E1
7.932028300E-1,2.777358890E-1,-1.194743156E1,8.834874034E-1,1.198327202E1
7.952025630E-1,2.825244367E-1,-1.191630554E1,8.810931444E-1,1.195217482E1
7.972022960E-1,2.561874092E-1,-1.188757420E1,8.810931444E-1,1.192293493E1
7.992020290E-1,2.537931204E-1,-1.186842060E1,8.810931444E-1,1.190378695E1
8.012017620E-1,2.609759569E-1,-1.184447765E1,8.954587579E-1,1.188114497E1
8.032014950E-1,2.681587934E-1,-1.182053471E1,8.906702399E-1,1.185707567E1
8.052012280E-1,2.633702159E-1,-1.179898643E1,9.002473354E-1,1.183621097E1
8.072009610E-1,2.513988614E-1,-1.177264881E1,9.002473354E-1,1.180969545E1
8.092007610E-1,2.466102988E-1,-1.173673534E1,9.050358534E-1,1.177416082E1
8.112004940E-1,2.537931204E-1,-1.171758080E1,9.122186899E-1,1.175577533E1
8.132002270E-1,2.585816681E-1,-1.168406105E1,9.146129489E-1,1.172265601E1
8.151999600E-1,2.633702159E-1,-1.163138676E1,9.026415944E-1,1.166933090E1
8.171996930E-1,2.681587934E-1,-1.160505009E1,9.074301720E-1,1.164356158E1
8.191994260E-1,2.418217510E-1,-1.156195259E1,9.074301720E-1,1.160002823E1
8.211991590E-1,2.418217510E-1,-1.151406765E1,9.026415944E-1,1.155192596E1
8.231989590E-1,2.394274771E-1,-1.149251938E1,9.098244309E-1,1.153096300E1
8.251987590E-1,2.370332032E-1,-1.142308521E1,9.170072675E-1,1.146228436E1
8.271984920E-1,2.346389294E-1,-1.136562252E1,9.170072675E-1,1.140496966E1
8.291982250E-1,2.418217510E-1,-1.129858303E1,9.170072675E-1,1.133831375E1
8.311979580E-1,2.346389294E-1,-1.128182316E1,9.146129489E-1,1.132126786E1
8.331976910E-1,2.274561077E-1,-1.121957207E1,9.098244309E-1,1.125869949E1
8.351974240E-1,2.418217510E-1,-1.116210938E1,9.098244309E-1,1.120173843E1
8.371971570E-1,2.418217510E-1,-1.113337803E1,9.146129489E-1,1.117349994E1
8.391969570E-1,2.346389294E-1,-1.106873226E1,9.050358534E-1,1.110814922E1
8.411966900E-1,2.274561077E-1,-1.101605797E1,8.930644989E-1,1.105453905E1
8.431964230E-1,2.370332032E-1,-1.098253822E1,8.906702399E-1,1.102114441E1
8.451961560E-1,2.466102988E-1,-1.091310501E1,9.050358534E-1,1.095334504E1
8.471958890E-1,2.394274771E-1,-1.086761379E1,9.026415944E-1,1.090766322E1
8.491956220E-1,2.394274771E-1,-1.084606457E1,9.122186899E-1,1.088699155E1
8.511953550E-1,2.442160249E-1,-1.078860188E1,9.146129489E-1,1.083005488E1
8.531950880E-1,2.513988614E-1,-1.072395706E1,9.146129489E-1,1.076582432E1
8.551948880E-1,2.490045726E-1,-1.069761944E1,9.217957854E-1,1.074014769E1
8.571946210E-1,2.537931204E-1,-1.065691757E1,9.337671995E-1,1.070075812E1
8.591943540E-1,2.561874092E-1,-1.059706020E1,9.313728809E-1,1.064099490E1
8.611940870E-1,2.442160249E-1,-1.056593513E1,9.170072675E-1,1.060846497E1
8.631938200E-1,2.466102988E-1,-1.050128937E1,9.122186899E-1,1.054372031E1
8.651935530E-1,2.490045726E-1,-1.043903828E1,8.930644989E-1,1.048012823E1
8.671932860E-1,2.370332032E-1,-1.040551853E1,9.050358534E-1,1.044749207E1
8.691930190E-1,2.298503816E-1,-1.035044956E1,9.050358534E-1,1.039248417E1
8.711928190E-1,2.418217510E-1,-1.029298782E1,8.978530765E-1,1.033490282E1
8.731925520E-1,2.490045726E-1,-1.022594738E1,8.739103079E-1,1.026624188E1
8.751922850E-1,2.537931204E-1,-1.018285084E1,8.691217303E-1,1.022302473E1
8.771920180E-1,2.513988614E-1,-1.011581135E1,8.858816624E-1,1.015763885E1
8.791917510E-1,2.394274771E-1,-1.006553173E1,8.763045669E-1,1.010644172E1
8.811914840E-1,2.418217510E-1,-1.003201103E1,8.739103079E-1,1.007290635E1
8.831912170E-1,2.466102988E-1,-9.962577820E0,8.810931444E-1,1.000450391E1
8.851909500E-1,2.513988614E-1,-9.895537376E0,8.643332124E-1,9.936394379E0
8.871907500E-1,2.537931204E-1,-9.862017632E0,8.619389534E-1,9.902865316E0
8.891904830E-1,2.609759569E-1,-9.792584419E0,8.571503758E-1,9.833489962E0
8.911902160E-1,2.681587934E-1,-9.708784103E0,8.547561169E-1,9.750025945E0
8.931899490E-1,2.561874092E-1,-9.677659035E0,8.499675393E-1,9.718290035E0
8.951896820E-1,2.490045726E-1,-9.613013268E0,8.356019258E-1,9.652474187E0
8.971894150E-1,2.442160249E-1,-9.541185379E0,8.284190893E-1,9.580195097E0
8.991891480E-1,2.513988614E-1,-9.502876282E0,8.188419938E-1,9.541402477E0
9.011889480E-1,2.609759569E-1,-9.423865318E0,8.236305118E-1,9.463388041E0
9.031887480E-1,2.490045726E-1,-9.356825829E0,8.140534163E-1,9.395471027E0
9.051884810E-1,2.513988614E-1,-9.325700760E0,8.116591573E-1,9.364330549E0
9.071882140E-1,2.490045726E-1,-9.253871918E0,7.948992252E-1,9.291286968E0
9.091879470E-1,2.490045726E-1,-9.194015503E0,7.877163887E-1,9.231057440E0
9.111876800E-1,2.442160249E-1,-9.155706406E0,7.901107073E-1,9.192979723E0
9.131874130E-1,2.418217510E-1,-9.126976013E0,7.805336118E-1,9.163481960E0
9.151871460E-1,2.202732861E-1,-9.057541847E0,7.541965842E-1,9.091556364E0
9.171869460E-1,2.202732861E-1,-9.000079155E0,7.398309112E-1,9.033122101E0
9.191867460E-1,2.226675600E-1,-8.971347809E0,7.374366522E-1,9.004358676E0
9.211864790E-1,2.370332032E-1,-8.911490440E0,7.326480746E-1,8.944697860E0
9.231862120E-1,2.346389294E-1,-8.854028702E0,7.206767201E-1,8.886408420E0
9.251859450E-1,2.346389294E-1,-8.830085754E0,7.087053657E-1,8.861587507E0
9.271856780E-1,2.418217510E-1,-8.772623062E0,6.967339516E-1,8.803569239E0
9.291854110E-1,2.202732861E-1,-8.715160370E0,7.087053657E-1,8.746702458E0
9.311851440E-1,2.154847383E-1,-8.686429024E0,6.967339516E-1,8.716990367E0
9.331849440E-1,2.226675600E-1,-8.616994858E0,6.751855016E-1,8.646274150E0
9.351846770E-1,2.298503816E-1,-8.566715240E0,6.680026650E-1,8.595793667E0
9.371844100E-1,2.226675600E-1,-8.549955368E0,6.632141471E-1,8.578529632E0
9.391841430E-1,2.202732861E-1,-8.494887352E0,6.536370516E-1,8.522844175E0
9.411838760E-1,2.346389294E-1,-8.437424660E0,6.512427330E-1,8.465772700E0
9.431836090E-1,2.370332032E-1,-8.413481712E0,6.416656375E-1,8.441243632E0
9.451833420E-1,2.298503816E-1,-8.363202095E0,6.273000240E-1,8.389844206E0
9.471830750E-1,2.346389294E-1,-8.303344727E0,6.201171875E-1,8.329773971E0
9.491828750E-1,2.418217510E-1,-8.248276711E0,6.105400920E-1,8.274376451E0
9.511826410E-1,2.346389294E-1,-8.214756966E0,6.033572555E-1,8.240226175E0
9.531824070E-1,2.250618339E-1,-8.142929077E0,5.913859010E-1,8.167477216E0
9.551821730E-1,2.298503816E-1,-8.097437859E0,6.009629965E-1,8.122960519E0
9.571819390E-1,2.274561077E-1,-8.075888634E0,6.033572555E-1,8.101589565E0
9.591817050E-1,2.513988614E-1,-8.018425941E0,5.889915824E-1,8.043958419E0
9.611814710E-1,2.513988614E-1,-7.956175327E0,5.770202279E-1,7.981032488E0
9.631812370E-1,2.490045726E-1,-7.927443981E0,5.794144869E-1,7.952489704E0
9.651810700E-1,2.394274771E-1,-7.877163887E0,5.698373914E-1,7.901376530E0
9.671808360E-1,2.298503816E-1,-7.810124397E0,5.530774593E-1,7.833056171E0
9.691806020E-1,2.322446555E-1,-7.776604652E0,5.554717779E-1,7.799876050E0
9.711803680E-1,2.394274771E-1,-7.745479107E0,5.602602959E-1,7.769405622E0
9.731801340E-1,2.274561077E-1,-7.695199013E0,5.482889414E-1,7.718059658E0
9.751799000E-1,2.298503816E-1,-7.690410614E0,5.411061049E-1,7.712849177E0
9.771796660E-1,2.322446555E-1,-7.678439140E0,5.339232683E-1,7.700483054E0
9.791794320E-1,2.322446555E-1,-7.620976925E0,5.291347504E-1,7.642853554E0
9.811792650E-1,2.059076279E-1,-7.577879906E0,5.195576549E-1,7.598460500E0
9.831790310E-1,2.035133541E-1,-7.558725357E0,5.315290093E-1,7.580123336E0
9.851787970E-1,2.035133541E-1,-7.515628815E0,5.339232683E-1,7.537318371E0
9.871785630E-1,2.250618339E-1,-7.498868465E0,5.363175869E-1,7.521390672E0
9.891783290E-1,2.202732861E-1,-7.474925995E0,5.291347504E-1,7.496867515E0
9.911780950E-1,2.154847383E-1,-7.460560322E0,5.291347504E-1,7.482404531E0
9.931778610E-1,2.178790122E-1,-7.431828976E0,5.315290093E-1,7.453997335E0
9.951776940E-1,2.178790122E-1,-7.419857502E0,5.243461728E-1,7.441551957E0
9.971775270E-1,2.083019018E-1,-7.403097630E0,5.123748183E-1,7.423730339E0
9.991772930E-1,1.987248063E-1,-7.374366283E0,5.195576549E-1,7.395316747E0
1.001177059E0,2.106961906E-1,-7.355212212E0,5.171633363E-1,7.376381056E0
1.003176825E0,2.106961906E-1,-7.336058140E0,5.099805593E-1,7.356780688E0
1.005176591E0,2.106961906E-1,-7.319298267E0,5.195576549E-1,7.340739756E0
1.007176357E0,2.178790122E-1,-7.314509392E0,5.195576549E-1,7.336174689E0
1.009176123E0,2.011190802E-1,-7.297749519E0,5.171633363E-1,7.318815126E0
1.011175923E0,2.035133541E-1,-7.259441376E0,5.243461728E-1,7.281198094E0
1.013175656E0,2.083019018E-1,-7.245075703E0,5.291347504E-1,7.267358200E0
1.015175389E0,2.035133541E-1,-7.218738556E0,5.195576549E-1,7.240272383E0
1.017175122E0,2.059076279E-1,-7.204372883E0,5.219519138E-1,7.226189894E0
1.019174855E0,2.083019018E-1,-7.197190285E0,5.219519138E-1,7.219097691E0
1.021174588E0,2.083019018E-1,-7.192401409E0,5.219519138E-1,7.214323358E0
1.023174321E0,1.987248063E-1,-7.168458939E0,5.315290093E-1,7.190884382E0
1.025174054E0,1.987248063E-1,-7.170853138E0,5.291347504E-1,7.193094595E0
1.027173854E0,1.915419847E-1,-7.154093266E0,5.387118459E-1,7.176903875E0
1.029173587E0,1.699935049E-1,-7.154093266E0,5.123748183E-1,7.174432117E0
1.031173320E0,1.723877788E-1,-7.127756119E0,5.147690773E-1,7.148399264E0
1.033173053E0,1.723877788E-1,-7.130150318E0,5.291347504E-1,7.151835057E0
1.035172786E0,1.652049571E-1,-7.120573044E0,5.147690773E-1,7.141067172E0
1.037172519E0,1.771763414E-1,-7.110996246E0,5.195576549E-1,7.132152496E0
1.039172252E0,1.795706153E-1,-7.108602047E0,5.267404318E-1,7.130352316E0
1.041171985E0,1.771763414E-1,-7.103813171E0,5.387118459E-1,7.126413087E0
1.043171785E0,1.891477108E-1,-7.110996246E0,5.435003638E-1,7.134243977E0
1.045171518E0,1.987248063E-1,-7.122967720E0,5.411061049E-1,7.146254719E0
1.047171251E0,1.747820675E-1,-7.139727592E0,5.506832004E-1,7.163065744E0
1.049170984E0,1.747820675E-1,-7.144515991E0,5.674431324E-1,7.169145641E0
1.051170717E0,1.723877788E-1,-7.151699066E0,5.674431324E-1,7.176246149E0
1.053170450E0,1.747820675E-1,-7.185218811E0,5.770202279E-1,7.210469505E0
1.055170183E0,1.508393139E-1,-7.223526955E0,5.794144869E-1,7.248297408E0
1.057169916E0,1.484450400E-1,-7.245075703E0,5.818088055E-1,7.269914673E0
1.059169716E0,1.580221355E-1,-7.247469902E0,5.794144869E-1,7.272311333E0
1.061169449E0,1.580221355E-1,-7.247469902E0,6.033572555E-1,7.274258103E0
1.063169182E0,1.628106833E-1,-7.261835575E0,5.961744189E-1,7.288085289E0
1.065168915E0,1.532335877E-1,-7.273807049E0,5.937801600E-1,7.299611250E0
1.067168648E0,1.819648892E-1,-7.276201248E0,5.913859010E-1,7.302462126E0
1.069168381E0,1.987248063E-1,-7.273807049E0,5.961744189E-1,7.300902990E0
1.071168114E0,2.035133541E-1,-7.273807049E0,5.961744189E-1,7.301034900E0
1.073167914E0,2.154847383E-1,-7.292961121E0,5.937801600E-1,7.320265737E0
1.075167714E0,2.274561077E-1,-7.300143719E0,6.033572555E-1,7.328565656E0
1.077167447E0,2.298503816E-1,-7.309720993E0,5.889915824E-1,7.337013240E0
1.079167180E0,2.035133541E-1,-7.338452339E0,6.201171875E-1,7.367417848E0
1.081166913E0,1.915419847E-1,-7.376760483E0,6.177229285E-1,7.405056730E0
1.083166646E0,1.915419847E-1,-7.395915031E0,6.153286099E-1,7.423939438E0
1.085166379E0,1.939362586E-1,-7.431828976E0,6.320885420E-1,7.461181483E0
1.087166112E0,1.963305324E-1,-7.460560322E0,6.440598965E-1,7.490882401E0
1.089165912E0,1.987248063E-1,-7.477320194E0,6.608198285E-1,7.509093932E0
1.091165645E0,2.059076279E-1,-7.508445740E0,6.584255695E-1,7.540071592E0
1.093165378E0,2.154847383E-1,-7.534782887E0,6.560313106E-1,7.566357373E0
1.095165111E0,2.154847383E-1,-7.556331158E0,6.656084061E-1,7.588649998E0
1.097164844E0,1.987248063E-1,-7.585062504E0,6.895511150E-1,7.618933356E0
1.099164577E0,1.891477108E-1,-7.601822376E0,6.703969240E-1,7.633669650E0
1.101164310E0,1.939362586E-1,-7.616188049E0,6.823683381E-1,7.649154086E0
1.103164043E0,2.059076279E-1,-7.644919395E0,6.895511150E-1,7.678715469E0
1.105163843E0,2.178790122E-1,-7.673650742E0,6.895511150E-1,7.707649947E0
1.107163576E0,2.250618339E-1,-7.688016415E0,7.063110471E-1,7.723672994E0
1.109163309E0,2.298503816E-1,-7.728719234E0,7.182824612E-1,7.765427348E0
1.111163042E0,2.418217510E-1,-7.771816254E0,7.087053657E-1,7.807808203E0
1.113162775E0,2.394274771E-1,-7.814912796E0,7.015225291E-1,7.849988623E0
1.115162508E0,2.322446555E-1,-7.831672668E0,7.039167881E-1,7.866672309E0
1.117162241E0,2.370332032E-1,-7.879558563E0,7.015225291E-1,7.914275820E0
1.119161974E0,2.298503816E-1,-7.937020779E0,7.182824612E-1,7.972769891E0
1.121161774E0,2.274561077E-1,-7.963357925E0,7.230709791E-1,7.999352309E0
1.123161507E0,2.226675600E-1,-7.994483471E0,7.326480746E-1,8.031072158E0
1.125161240E0,2.154847383E-1,-8.061523438E0,7.326480746E-1,8.097614896E0
1.127160973E0,2.154847383E-1,-8.085466385E0,7.374366522E-1,8.121884827E0
1.129160706E0,2.130904645E-1,-8.157294273E0,7.613793612E-1,8.195520480E0
1.131160439E0,2.011190802E-1,-8.212362289E0,7.781392932E-1,8.251596453E0
1.133160172E0,2.083019018E-1,-8.241093636E0,7.757450342E-1,8.280144585E0
1.135159905E0,2.274561077E-1,-8.300951004E0,7.541965842E-1,8.338245399E0
1.137159705E0,2.346389294E-1,-8.341653824E0,7.470137477E-1,8.378321639E0
1.139159438E0,2.298503816E-1,-8.348835945E0,7.541965842E-1,8.385982669E0
1.141159171E0,2.466102988E-1,-8.391933441E0,7.565908432E-1,8.429578473E0
1.143158904E0,2.490045726E-1,-8.447001457E0,7.350423932E-1,8.482577687E0
1.145158637E0,2.490045726E-1,-8.470944405E0,7.709565163E-1,8.509599070E0
1.147158370E0,2.466102988E-1,-8.526012421E0,7.901107073E-1,8.566094756E0
1.149158103E0,2.490045726E-1,-8.583475113E0,7.470137477E-1,8.619517262E0
1.151157903E0,2.442160249E-1,-8.640937805E0,7.972934842E-1,8.681078534E0
1.153157703E0,2.442160249E-1,-8.676852226E0,8.188419938E-1,8.718824934E0
1.155157436E0,2.513988614E-1,-8.748680115E0,7.685621977E-1,8.785971374E0
1.157157169E0,2.490045726E-1,-8.779806137E0,8.044763207E-1,8.820100976E0
1.159156902E0,2.513988614E-1,-8.815719604E0,8.260248303E-1,8.857902153E0
1.161156635E0,2.609759569E-1,-8.913885117E0,8.020820618E-1,8.953702695E0
1.163156368E0,2.585816681E-1,-8.942616463E0,8.020820618E-1,8.982237434E0
1.165156101E0,2.490045726E-1,-8.964164734E0,8.140534163E-1,9.004495301E0
1.167155901E0,2.466102988E-1,-9.038387299E0,7.996878028E-1,9.077045895E0
1.169155701E0,2.561874092E-1,-9.067118645E0,7.901107073E-1,9.105083604E0
1.171155434E0,2.609759569E-1,-9.079090118E0,8.116591573E-1,9.119033744E0
1.173155167E0,2.705530524E-1,-9.150918007E0,8.020820618E-1,9.189985580E0
1.175154900E0,2.729473412E-1,-9.210775375E0,7.661679387E-1,9.246615412E0
1.177154633E0,2.705530524E-1,-9.227535248E0,7.901107073E-1,9.265251245E0
1.179154366E0,2.705530524E-1,-9.294574738E0,7.853221297E-1,9.331615581E0
1.181154099E0,2.777358890E-1,-9.364008904E0,7.518022656E-1,9.398244869E0
1.183153899E0,2.801301479E-1,-9.383162498E0,7.805336118E-1,9.419736944E0
1.185153632E0,2.801301479E-1,-9.435836792E0,7.829278708E-1,9.472405445E0
1.187153365E0,3.040728867E-1,-9.500482559E0,7.422251701E-1,9.534281692E0
1.189153098E0,2.777358890E-1,-9.579493523E0,7.853221297E-1,9.615641644E0
1.191152831E0,2.753416002E-1,-9.627379417E0,8.044763207E-1,9.664855384E0
1.193152564E0,2.753416002E-1,-9.713572502E0,7.637736797E-1,9.747443459E0
1.195152297E0,2.681587934E-1,-9.773429871E0,8.020820618E-1,9.809952916E0
1.197152030E0,2.633702159E-1,-9.806949615E0,8.284190893E-1,9.845400084E0
1.199151830E0,2.825244367E-1,-9.885960579E0,7.853221297E-1,9.921127329E0
1.201151563E0,2.681587934E-1,-9.957788467E0,7.853221297E-1,9.992306598E0
1.203151296E0,2.705530524E-1,-9.988914490E0,8.020820618E-1,1.002471682E1
1.205151029E0,2.777358890E-1,-1.007032013E1,7.901107073E-1,1.010508583E1
1.207150762E0,2.849186957E-1,-1.011102295E1,7.661679387E-1,1.014401188E1
1.209150495E0,2.825244367E-1,-1.013017654E1,7.948992252E-1,1.016524282E1
1.211150228E0,2.825244367E-1,-1.020439911E1,7.709565163E-1,1.023738029E1
1.213149961E0,2.921015322E-1,-1.026425648E1,7.661679387E-1,1.029695575E1
1.215149761E0,2.897072434E-1,-1.026904488E1,7.948992252E-1,1.030383801E1
1.217149527E0,2.897072434E-1,-1.032890129E1,7.757450342E-1,1.036204191E1
1.219149293E0,2.873129845E-1,-1.040073013E1,7.541965842E-1,1.043199638E1
1.221149059E0,2.753416002E-1,-1.043185520E1,7.733507752E-1,1.046410471E1
1.223148825E0,2.657645047E-1,-1.048213482E1,7.829278708E-1,1.051469244E1
1.225148591E0,2.921015322E-1,-1.054438591E1,7.565908432E-1,1.057552964E1
1.227148357E0,2.873129845E-1,-1.056354046E1,8.020820618E-1,1.059784277E1
1.229148123E0,2.921015322E-1,-1.062100315E1,8.068706393E-1,1.065561221E1
1.231147956E0,2.873129845E-1,-1.069522572E1,7.589851022E-1,1.072597130E1
1.233147822E0,2.801301479E-1,-1.075747681E1,8.188419938E-1,1.079223250E1
1.235147688E0,2.801301479E-1,-1.077423668E1,8.308133483E-1,1.080985198E1
1.237147554E0,2.873129845E-1,-1.082930470E1,7.685621977E-1,1.086034423E1
1.239147420E0,2.585816681E-1,-1.090592194E1,7.972934842E-1,1.093808368E1
1.241147286E0,2.513988614E-1,-1.094183540E1,8.068706393E-1,1.097442498E1
1.243147152E0,2.705530524E-1,-1.099929810E1,7.948992252E-1,1.103130193E1
1.245147085E0,2.561874092E-1,-1.106154919E1,8.068706393E-1,1.109389664E1
1.247147018E0,2.537931204E-1,-1.108788681E1,8.212362528E-1,1.112115434E1
1.249146951E0,2.561874092E-1,-1.114056110E1,8.020820618E-1,1.117233500E1
1.251146884E0,2.537931204E-1,-1.119323444E1,7.948992252E-1,1.122429388E1
1.253146817E0,2.490045726E-1,-1.123393726E1,8.092648983E-1,1.126580043E1
1.255146750E0,2.418217510E-1,-1.129379463E1,8.164477348E-1,1.132584928E1
1.257146683E0,2.561874092E-1,-1.131773663E1,8.164477348E-1,1.135003882E1
1.259146616E0,2.609759569E-1,-1.134407425E1,8.140534163E-1,1.137623892E1
1.261146616E0,2.585816681E-1,-1.140871906E1,8.356019258E-1,1.144220109E1
1.263146582E0,2.705530524E-1,-1.143984509E1,8.499675393E-1,1.147456750E1
1.265146548E0,2.777358890E-1,-1.146378803E1,8.499675393E-1,1.149860940E1
1.267146514E0,2.705530524E-1,-1.152364445E1,8.571503758E-1,1.155864556E1
1.269146480E0,2.681587934E-1,-1.158589554E1,8.571503758E-1,1.162065365E1
1.271146446E0,2.729473412E-1,-1.161702156E1,8.427847624E-1,1.165075003E1
1.273146412E0,2.801301479E-1,-1.163378143E1,8.332076073E-1,1.166694383E1
1.275146378E0,2.633702159E-1,-1.169124413E1,8.571503758E-1,1.172558143E1
1.277146378E0,2.609759569E-1,-1.173912907E1,8.691217303E-1,1.177415102E1
1.279146344E0,2.609759569E-1,-1.176546669E1,8.739103079E-1,1.180076413E1
1.281146310E0,2.561874092E-1,-1.180377483E1,8.763045669E-1,1.183903045E1
1.283146276E0,2.537931204E-1,-1.186363125E1,8.715160489E-1,1.189830650E1
1.285146242E0,2.537931204E-1,-1.188039207E1,8.786988258E-1,1.191554608E1
1.287146208E0,2.585816681E-1,-1.188996887E1,8.882759809E-1,1.192590703E1
1.289146174E0,2.609759569E-1,-1.191630554E1,8.882759809E-1,1.195221655E1
1.291146140E0,2.585816681E-1,-1.194743156E1,8.978530765E-1,1.198391111E1
1.293146073E0,2.681587934E-1,-1.196897984E1,9.074301720E-1,1.200632404E1
1.295146006E0,2.681587934E-1,-1.196897984E1,9.074301720E-1,1.200632404E1
1.297145906E0,2.753416002E-1,-1.199052811E1,9.074301720E-1,1.202796769E1
1.299145839E0,2.657645047E-1,-1.201207638E1,9.098244309E-1,1.204941452E1
1.301145772E0,2.657645047E-1,-1.200249958E1,9.122186899E-1,1.204004858E1
1.303145705E0,2.657645047E-1,-1.200249958E1,9.170072675E-1,1.204041234E1
1.305145638E0,2.753416002E-1,-1.203841400E1,9.265843630E-1,1.207715957E1
1.307145571E0,2.825244367E-1,-1.205996227E1,9.313728809E-1,1.209917210E1
1.309145504E0,2.753416002E-1,-1.207911682E1,9.313728809E-1,1.211809934E1
1.311145370E0,2.729473412E-1,-1.208869362E1,9.385557175E-1,1.212814497E1
1.313145236E0,2.801301479E-1,-1.211024189E1,9.385557175E-1,1.214978676E1
1.315145102E0,2.705530524E-1,-1.213418484E1,9.217957854E-1,1.217215462E1
1.317144968E0,2.633702159E-1,-1.216052151E1,9.217957854E-1,1.219825212E1
1.319144834E0,2.705530524E-1,-1.219164753E1,9.170072675E-1,1.222907890E1
1.321144700E0,2.705530524E-1,-1.221798420E1,9.457385540E-1,1.225751844E1
1.323144600E0,2.705530524E-1,-1.223713875E1,9.529213905E-1,1.227716673E1
1.325144500E0,2.777358890E-1,-1.225389862E1,9.648927450E-1,1.229496591E1
1.327144333E0,2.753416002E-1,-1.226587009E1,9.768640995E-1,1.230778801E1
1.329144166E0,2.705530524E-1,-1.226826382E1,9.720755816E-1,1.230968834E1
1.331143999E0,2.561874092E-1,-1.228502369E1,9.744698405E-1,1.232627399E1
1.333143832E0,2.681587934E-1,-1.229220676E1,9.960182905E-1,1.233540874E1
1.335143665E0,2.705530524E-1,-1.229460144E1,9.984126091E-1,1.233804082E1
1.337143498E0,2.705530524E-1,-1.228981304E1,9.984126091E-1,1.233326929E1
1.339143364E0,2.777358890E-1,-1.228981304E1,1.000806928E0,1.233362300E1
1.341143230E0,2.897072434E-1,-1.228981304E1,9.816526771E-1,1.233235893E1
1.343143030E0,2.897072434E-1,-1.227544689E1,9.840469360E-1,1.231823344E1
1.345142830E0,2.801301479E-1,-1.226347542E1,9.984126091E-1,1.230723893E1
1.347142630E0,2.801301479E-1,-1.226826382E1,1.010383964E0,1.231298687E1
1.349142430E0,2.897072434E-1,-1.226347542E1,1.007989645E0,1.230824125E1
1.351142230E0,2.921015322E-1,-1.224911022E1,1.015172482E0,1.229457603E1
1.353142030E0,2.873129845E-1,-1.225150394E1,1.022355318E0,1.229744315E1
1.355141830E0,2.897072434E-1,-1.224432182E1,1.017566800E0,1.228994668E1
1.357141596E0,2.921015322E-1,-1.221319580E1,1.024749637E0,1.225959162E1
1.359141329E0,2.825244367E-1,-1.220122433E1,1.017566800E0,1.224684193E1
1.361141062E0,2.753416002E-1,-1.219883060E1,1.031932473E0,1.224549573E1
1.363140795E0,2.705530524E-1,-1.218925285E1,1.031932473E0,1.223584769E1
1.365140528E0,2.849186957E-1,-1.214855003E1,1.031932473E0,1.219562754E1
1.367140261E0,2.801301479E-1,-1.213418484E1,1.027143836E0,1.218080207E1
1.369139994E0,2.897072434E-1,-1.210545349E1,1.024749637E0,1.215220335E1
1.371139794E0,2.777358890E-1,-1.207193375E1,1.019961119E0,1.211812866E1
1.373139527E0,2.777358890E-1,-1.205996227E1,1.022355318E0,1.210640482E1
1.375139260E0,2.801301479E-1,-1.205756760E1,1.019961119E0,1.210387252E1
1.377138993E0,2.753416002E-1,-1.204559612E1,1.022355318E0,1.209203909E1
1.379138726E0,2.753416002E-1,-1.203362560E1,1.024749637E0,1.208031746E1
1.381138459E0,2.777358890E-1,-1.199292278E1,1.027143836E0,1.204003150E1
1.383138192E0,2.825244367E-1,-1.195700836E1,1.027143836E0,1.200436977E1
1.385137925E0,2.921015322E-1,-1.194982529E1,1.015172482E0,1.199642542E1
1.387137725E0,2.968900800E-1,-1.191870022E1,9.984126091E-1,1.196412915E1
1.389137458E0,2.873129845E-1,-1.189715195E1,9.840469360E-1,1.194123618E1
1.391137191E0,2.944957912E-1,-1.186123753E1,9.840469360E-1,1.190563026E1
1.393136924E0,3.064671755E-1,-1.185405445E1,9.768640995E-1,1.189818442E1
1.395136657E0,3.136500120E-1,-1.184447765E1,9.648927450E-1,1.188785284E1
1.397136390E0,3.136500120E-1,-1.180616951E1,9.816526771E-1,1.185106142E1
1.399136123E0,3.016786277E-1,-1.178701496E1,9.840469360E-1,1.183186714E1
1.401135856E0,2.825244367E-1,-1.176307201E1,9.577099085E-1,1.180537554E1
1.403135656E0,2.968900800E-1,-1.172236919E1,9.313728809E-1,1.176305822E1
1.405135389E0,2.921015322E-1,-1.171039772E1,9.385557175E-1,1.175157968E1
1.407135122E0,2.968900800E-1,-1.167448425E1,9.313728809E-1,1.171533959E1
1.409134855E0,2.992843390E-1,-1.163617516E1,9.265843630E-1,1.167684469E1
1.411134588E0,2.992843390E-1,-1.161462688E1,9.289786220E-1,1.165556219E1
1.413134321E0,2.825244367E-1,-1.156913567E1,9.098244309E-1,1.160829447E1
1.415134054E0,2.801301479E-1,-1.153561592E1,9.050358534E-1,1.157445452E1
1.417133854E0,2.825244367E-1,-1.150927925E1,8.978530765E-1,1.154770406E1
1.419133654E0,2.873129845E-1,-1.146378803E1,8.978530765E-1,1.150248343E1
1.421133387E0,2.825244367E-1,-1.141350842E1,8.882759809E-1,1.145150770E1
1.423133120E0,2.753416002E-1,-1.137280560E1,8.810931444E-1,1.141020794E1
1.425132853E0,2.849186957E-1,-1.133210278E1,8.763045669E-1,1.136950490E1
1.427132586E0,2.777358890E-1,-1.127703476E1,8.643332124E-1,1.131351944E1
1.429132319E0,2.849186957E-1,-1.122196579E1,8.427847624E-1,1.125717465E1
1.431132052E0,2.897072434E-1,-1.120520592E1,8.308133483E-1,1.123969843E1
1.433131852E0,2.753416002E-1,-1.115013790E1,8.332076073E-1,1.118461547E1
1.435131585E0,2.705530524E-1,-1.108788681E1,8.308133483E-1,1.112226073E1
1.437131318E0,2.729473412E-1,-1.106154919E1,8.236305118E-1,1.109552783E1
1.439131051E0,2.609759569E-1,-1.099211597E1,8.260248303E-1,1.102619785E1
1.441130784E0,2.561874092E-1,-1.093944168E1,8.284190893E-1,1.097375480E1
1.443130517E0,2.633702159E-1,-1.091071033E1,8.212362528E-1,1.094474270E1
1.445130250E0,2.609759569E-1,-1.085803604E1,8.092648983E-1,1.089127930E1
1.447129983E0,2.633702159E-1,-1.081015110E1,8.020820618E-1,1.084306536E1
1.449129783E0,2.609759569E-1,-1.078141975E1,8.020820618E-1,1.081436341E1
1.451129516E0,2.466102988E-1,-1.074311066E1,7.972934842E-1,1.077547772E1
1.453129249E0,2.585816681E-1,-1.070719719E1,8.020820618E-1,1.074031060E1
1.455128982E0,2.561874092E-1,-1.067846584E1,8.068706393E-1,1.071197017E1
1.457128715E0,2.490045726E-1,-1.061142635E1,7.925049663E-1,1.064389199E1
1.459128448E0,2.585816681E-1,-1.054678059E1,7.901107073E-1,1.057949527E1
1.461128181E0,2.585816681E-1,-1.051804924E1,7.925049663E-1,1.055103258E1
1.463127914E0,2.585816681E-1,-1.046537495E1,7.781392932E-1,1.049744912E1
1.465127714E0,2.633702159E-1,-1.041749001E1,7.661679387E-1,1.044894613E1
1.467127447E0,2.490045726E-1,-1.038636398E1,7.637736797E-1,1.041738500E1
1.469127180E0,2.490045726E-1,-1.032411289E1,7.637736797E-1,1.035532040E1
1.471126913E0,2.537931204E-1,-1.027622795E1,7.589851022E-1,1.030734351E1
1.473126646E0,2.418217510E-1,-1.021397591E1,7.541965842E-1,1.024463733E1
1.475126379E0,2.418217510E-1,-1.018524456E1,7.518022656E-1,1.021581574E1
1.477126112E0,2.322446555E-1,-1.013017654E1,7.350423932E-1,1.015946365E1
1.479125845E0,2.418217510E-1,-1.005595398E1,7.398309112E-1,1.008603182E1
1.481125645E0,2.513988614E-1,-1.001764584E1,7.398309112E-1,1.004807341E1
1.483125378E0,2.466102988E-1,-9.953000069E0,7.350423932E-1,9.983151523E0
1.485125111E0,2.346389294E-1,-9.895537376E0,7.206767201E-1,9.924519652E0
1.487124844E0,2.322446555E-1,-9.859623909E0,7.087053657E-1,9.887789667E0
1.489124577E0,2.394274771E-1,-9.790189743E0,7.134938836E-1,9.819074001E0
1.491124310E0,2.346389294E-1,-9.737515450E0,7.278595567E-1,9.767499275E0
1.493124043E0,2.274561077E-1,-9.703995705E0,7.206767201E-1,9.733377823E0
1.495123843E0,2.298503816E-1,-9.639349937E0,7.039167881E-1,9.667750372E0
1.497123643E0,2.298503816E-1,-9.569916725E0,7.039167881E-1,9.598522603E0
1.499123376E0,2.322446555E-1,-9.536396980E0,7.015225291E-1,9.564985039E0
1.501123109E0,2.322446555E-1,-9.452596664E0,6.943396926E-1,9.480908653E0
1.503122842E0,2.370332032E-1,-9.387951851E0,6.871568561E-1,9.416050618E0
1.505122608E0,2.178790122E-1,-9.354432106E0,6.919454336E-1,9.382518839E0
1.507122341E0,2.178790122E-1,-9.296969414E0,6.823683381E-1,9.324523478E0
1.509122074E0,2.106961906E-1,-9.239506721E0,6.823683381E-1,9.267065549E0
1.511121874E0,2.250618339E-1,-9.165284157E0,6.847625971E-1,9.193583976E0
1.513121607E0,2.226675600E-1,-9.138946533E0,6.823683381E-1,9.167090658E0
1.515121340E0,2.250618339E-1,-9.086273193E0,6.895511150E-1,9.115179324E0
1.517121073E0,2.346389294E-1,-9.024022102E0,6.775797606E-1,9.052466220E0
1.519120806E0,2.298503816E-1,-8.992896080E0,6.823683381E-1,9.021675989E0
1.521120539E0,2.226675600E-1,-8.945011139E0,6.751855016E-1,8.973220190E0
1.523120272E0,2.226675600E-1,-8.889942169E0,6.584255695E-1,8.917072213E0
1.525120005E0,2.106961906E-1,-8.856422424E0,6.584255695E-1,8.883362836E0
1.527119805E0,2.202732861E-1,-8.803748131E0,6.560313106E-1,8.830904741E0
1.529119538E0,2.154847383E-1,-8.748680115E0,6.632141471E-1,8.776428113E0
1.531119271E0,2.154847383E-1,-8.729525566E0,6.560313106E-1,8.756793212E0
1.533119004E0,2.059076279E-1,-8.676852226E0,6.751855016E-1,8.705517674E0
1.535118737E0,2.035133541E-1,-8.621783257E0,6.943396926E-1,8.652090604E0
1.537118470E0,2.035133541E-1,-8.605023384E0,6.895511150E-1,8.635005841E0
1.539118203E0,2.106961906E-1,-8.552350044E0,6.751855016E-1,8.581547624E0
1.541117936E0,2.035133541E-1,-8.487704277E0,6.680026650E-1,8.516382397E0
1.543117736E0,2.035133541E-1,-8.451789856E0,6.703969240E-1,8.480778354E0
1.545117469E0,2.154847383E-1,-8.384750366E0,6.823683381E-1,8.415230177E0
1.547117202E0,2.059076279E-1,-8.339259148E0,6.799740195E-1,8.369468666E0
1.549116935E0,2.059076279E-1,-8.298556328E0,6.656084061E-1,8.327752976E0
1.551116668E0,2.011190802E-1,-8.265036583E0,6.680026650E-1,8.294426211E0
1.553116401E0,1.963305324E-1,-8.205180168E0,6.799740195E-1,8.235647633E0
1.555116134E0,1.939362586E-1,-8.164477348E0,6.703969240E-1,8.194250038E0
1.557115867E0,1.963305324E-1,-8.140534401E0,6.727912426E-1,8.170648326E0
1.559115667E0,2.011190802E-1,-8.092648506E0,6.751855016E-1,8.123255763E0
1.561115400E0,2.011190802E-1,-8.028003693E0,6.823683381E-1,8.059461441E0
1.563115133E0,2.059076279E-1,-8.001666069E0,6.871568561E-1,8.033756430E0
1.565114833E0,1.987248063E-1,-7.953781128E0,7.015225291E-1,7.987130877E0
1.567114566E0,1.867534369E-1,-7.886741161E0,6.919454336E-1,7.919239324E0
1.569114299E0,1.867534369E-1,-7.862798691E0,6.847625971E-1,7.894769149E0
1.571114032E0,1.939362586E-1,-7.812518597E0,6.823683381E-1,7.844659626E0
1.573113832E0,1.963305324E-1,-7.759844780E0,6.799740195E-1,7.792053731E0
1.575113632E0,1.939362586E-1,-7.743084908E0,6.799740195E-1,7.775303198E0
1.577113365E0,1.915419847E-1,-7.707170486E0,6.727912426E-1,7.738850903E0
1.579113098E0,1.891477108E-1,-7.683228016E0,6.608198285E-1,7.713912914E0
1.581112831E0,2.011190802E-1,-7.659285069E0,6.632141471E-1,7.690575378E0
1.583112564E0,2.035133541E-1,-7.623371124E0,6.727912426E-1,7.655707220E0
1.585112297E0,1.891477108E-1,-7.585062504E0,6.727912426E-1,7.617190959E0
1.587112030E0,1.867534369E-1,-7.565908432E0,6.703969240E-1,7.597847016E0
1.589111830E0,1.939362586E-1,-7.556331158E0,6.775797606E-1,7.589128156E0
1.591111630E0,1.963305324E-1,-7.527599812E0,6.775797606E-1,7.560583240E0
1.593111363E0,2.083019018E-1,-7.484503269E0,6.751855016E-1,7.517782541E0
1.595111096E0,2.130904645E-1,-7.470137596E0,6.680026650E-1,7.502972132E0
1.597110829E0,2.106961906E-1,-7.443800449E0,6.608198285E-1,7.476044466E0
1.599110562E0,1.987248063E-1,-7.436617374E0,6.656084061E-1,7.468989495E0
1.601110295E0,2.106961906E-1,-7.419857502E0,6.560313106E-1,7.451782023E0
1.603110028E0,2.083019018E-1,-7.388731956E0,6.608198285E-1,7.421147651E0
1.605109828E0,2.083019018E-1,-7.362394810E0,6.656084061E-1,7.395355405E0
1.607109561E0,2.059076279E-1,-7.352818012E0,6.584255695E-1,7.385110351E0
1.609109294E0,1.891477108E-1,-7.321692467E0,6.536370516E-1,7.353244102E0
1.611109027E0,1.867534369E-1,-7.309720993E0,6.536370516E-1,7.341262782E0
1.613108760E0,1.939362586E-1,-7.307326794E0,6.608198285E-1,7.339708372E0
1.615108493E0,2.011190802E-1,-7.271412373E0,6.536370516E-1,7.303501090E0
1.617108226E0,2.011190802E-1,-7.247469902E0,6.536370516E-1,7.279664159E0
1.619107959E0,2.059076279E-1,-7.240286827E0,6.392713785E-1,7.271369829E0
1.621107759E0,1.987248063E-1,-7.223526955E0,6.440598965E-1,7.254904987E0
1.623107492E0,2.083019018E-1,-7.213950157E0,6.488484740E-1,7.246065891E0
1.625107225E0,2.106961906E-1,-7.213950157E0,6.392713785E-1,7.245283821E0
1.627106958E0,2.130904645E-1,-7.206767082E0,6.296942830E-1,7.237362380E0
1.629106691E0,2.059076279E-1,-7.178035736E0,6.392713785E-1,7.209387136E0
1.631106424E0,2.035133541E-1,-7.173247337E0,6.344828010E-1,7.204128224E0
1.633106157E0,2.059076279E-1,-7.173247337E0,6.201171875E-1,7.202945275E0
1.635105890E0,2.083019018E-1,-7.151699066E0,6.081457734E-1,7.180531352E0
1.637105690E0,2.059076279E-1,-7.146910191E0,6.105400920E-1,7.175895932E0
1.639105423E0,2.154847383E-1,-7.132544518E0,6.105400920E-1,7.161870159E0
1.641105156E0,2.130904645E-1,-7.134938717E0,6.296942830E-1,7.165840699E0
1.643104889E0,1.939362586E-1,-7.134938717E0,6.105400920E-1,7.163638808E0
1.645104622E0,1.867534369E-1,-7.144515991E0,6.009629965E-1,7.172178338E0
1.647104355E0,1.915419847E-1,-7.139727592E0,5.818088055E-1,7.165954222E0
1.649104088E0,2.130904645E-1,-7.139727592E0,5.961744189E-1,7.167743130E0
1.651103821E0,2.059076279E-1,-7.149304390E0,5.985686779E-1,7.177272161E0
1.653103621E0,2.083019018E-1,-7.158881664E0,5.889915824E-1,7.186089858E0
1.655103354E0,1.891477108E-1,-7.185218811E0,6.057515144E-1,7.213188000E0
1.657103087E0,1.939362586E-1,-7.190007210E0,5.937801600E-1,7.217090122E0
1.659102820E0,1.795706153E-1,-7.194795609E0,5.889915824E-1,7.221096907E0
1.661102553E0,1.939362586E-1,-7.221132755E0,5.913859010E-1,7.247903616E0
1.663102286E0,1.963305324E-1,-7.225921154E0,5.937801600E-1,7.252934377E0
1.665102019E0,1.867534369E-1,-7.242681503E0,5.913859010E-1,7.269184926E0
1.667101819E0,1.867534369E-1,-7.261835575E0,5.770202279E-1,7.287117750E0
1.669101619E0,2.011190802E-1,-7.285778046E0,5.985686779E-1,7.313090665E0
1.671101385E0,1.987248063E-1,-7.297749519E0,5.961744189E-1,7.324756892E0
1.673101151E0,2.035133541E-1,-7.304932594E0,5.842030644E-1,7.331081169E0
1.675100917E0,2.059076279E-1,-7.345634937E0,5.889915824E-1,7.372086656E0
1.677100683E0,2.083019018E-1,-7.352818012E0,5.937801600E-1,7.379694931E0
1.679100449E0,2.011190802E-1,-7.369577885E0,5.842030644E-1,7.395432395E0
1.681100215E0,1.963305324E-1,-7.391126156E0,5.889915824E-1,7.417155965E0
1.683100048E0,1.915419847E-1,-7.400703430E0,5.937801600E-1,7.426955936E0
1.685099814E0,1.939362586E-1,-7.412674904E0,5.865973234E-1,7.438377304E0
1.687099580E0,2.011190802E-1,-7.450983047E0,5.818088055E-1,7.476369356E0
1.689099346E0,1.987248063E-1,-7.467742920E0,5.818088055E-1,7.493008565E0
1.691099112E0,1.987248063E-1,-7.498868465E0,5.842030644E-1,7.524215111E0
1.693098878E0,2.011190802E-1,-7.544359684E0,5.770202279E-1,7.569066275E0
1.695098644E0,1.915419847E-1,-7.551542759E0,5.698373914E-1,7.575434049E0
1.697098410E0,1.915419847E-1,-7.589851379E0,5.602602959E-1,7.612911657E0
1.699098243E0,1.939362586E-1,-7.611399651E0,5.818088055E-1,7.636066880E0
1.701098009E0,1.867534369E-1,-7.630553722E0,5.842030644E-1,7.655162975E0
1.703097775E0,1.963305324E-1,-7.642525196E0,5.842030644E-1,7.667335278E0
1.705097541E0,2.083019018E-1,-7.683228016E0,5.746259689E-1,7.707501374E0
1.707097307E0,1.987248063E-1,-7.702382088E0,5.674431324E-1,7.725812131E0
1.709097073E0,2.011190802E-1,-7.750267506E0,5.794144869E-1,7.774497826E0
1.711096839E0,2.035133541E-1,-7.793364525E0,5.626545548E-1,7.816298897E0
1.713096605E0,2.035133541E-1,-7.822095871E0,5.674431324E-1,7.845291149E0
1.715096438E0,2.035133541E-1,-7.850827217E0,5.770202279E-1,7.874633834E0
1.717096204E0,1.963305324E-1,-7.903501034E0,5.794144869E-1,7.927142954E0
1.719095970E0,2.011190802E-1,-7.951386452E0,5.913859010E-1,7.975884445E0
1.721095736E0,2.011190802E-1,-7.982511997E0,5.961744189E-1,8.007269860E0
1.723095502E0,2.035133541E-1,-8.032792091E0,5.794144869E-1,8.056232843E0
1.725095268E0,2.059076279E-1,-8.078283310E0,5.889915824E-1,8.102343505E0
1.727095034E0,2.059076279E-1,-8.111803055E0,5.842030644E-1,8.135418857E0
1.729094800E0,2.059076279E-1,-8.169265747E0,5.865973234E-1,8.192886989E0
1.731094600E0,2.011190802E-1,-8.214756966E0,5.889915824E-1,8.238300308E0
1.733094333E0,2.083019018E-1,-8.248276711E0,5.818088055E-1,8.271394070E0
1.735094066E0,2.250618339E-1,-8.303344727E0,5.961744189E-1,8.327761429E0
1.737093799E0,2.035133541E-1,-8.344047546E0,6.081457734E-1,8.368655114E0
1.739093532E0,1.963305324E-1,-8.379961967E0,6.033572555E-1,8.403948372E0
1.741093265E0,2.083019018E-1,-8.447001457E0,5.865973234E-1,8.469906713E0
1.743092998E0,2.106961906E-1,-8.497281075E0,5.889915824E-1,8.520275208E0
1.745092798E0,2.130904645E-1,-8.526012421E0,5.913859010E-1,8.549153913E0
1.747092598E0,2.106961906E-1,-8.576292038E0,6.105400920E-1,8.600577725E0
1.749092331E0,1.987248063E-1,-8.633754730E0,6.105400920E-1,8.657596173E0
1.751092064E0,2.130904645E-1,-8.691217422E0,6.105400920E-1,8.715241077E0
1.753091797E0,2.154847383E-1,-8.717555046E0,6.105400920E-1,8.741565012E0
1.755091530E0,2.059076279E-1,-8.786988258E0,6.153286099E-1,8.810913114E0
1.757091263E0,2.059076279E-1,-8.837267876E0,6.273000240E-1,8.861896342E0
1.759090996E0,2.106961906E-1,-8.865999222E0,6.201171875E-1,8.890156377E0
1.761090796E0,2.106961906E-1,-8.923461914E0,6.320885420E-1,8.948301590E0
1.763090529E0,2.202732861E-1,-8.978530884E0,6.488484740E-1,9.004639998E0
1.765090262E0,2.178790122E-1,-8.997684479E0,6.584255695E-1,9.024373744E0
1.767089995E0,2.154847383E-1,-9.043175697E0,6.488484740E-1,9.068983665E0
1.769089728E0,2.059076279E-1,-9.105426788E0,6.488484740E-1,9.130837820E0
1.771089461E0,2.059076279E-1,-9.129369736E0,6.632141471E-1,9.155743702E0
1.773089194E0,2.202732861E-1,-9.184437752E0,6.703969240E-1,9.211506347E0
1.775088927E0,2.202732861E-1,-9.241900444E0,6.895511150E-1,9.270206302E0
1.777088727E0,2.250618339E-1,-9.263449669E0,6.967339516E-1,9.292340437E0
1.779088460E0,2.370332032E-1,-9.344854355E0,7.158881426E-1,9.375232450E0
1.781088193E0,2.322446555E-1,-9.423865318E0,7.087053657E-1,9.453329488E0
1.783087926E0,2.298503816E-1,-9.459779739E0,7.087053657E-1,9.489074097E0
1.785087659E0,2.346389294E-1,-9.529213905E0,7.278595567E-1,9.559851077E0
1.787087392E0,2.322446555E-1,-9.598648071E0,7.278595567E-1,9.629006278E0
1.789087125E0,2.370332032E-1,-9.653716087E0,7.494080067E-1,9.685661123E0
1.791086858E0,2.322446555E-1,-9.687235832E0,7.518022656E-1,9.719139998E0
1.793086658E0,2.250618339E-1,-9.756669998E0,7.637736797E-1,9.789106829E0
1.795086391E0,2.346389294E-1,-9.814132690E0,7.733507752E-1,9.847351284E0
1.797086124E0,2.322446555E-1,-9.864412308E0,7.757450342E-1,9.897593047E0
1.799085857E0,2.250618339E-1,-9.931451797E0,7.781392932E-1,9.964431163E0
1.801085590E0,2.322446555E-1,-9.993702888E0,7.853221297E-1,1.002720130E1
1.803085323E0,2.466102988E-1,-1.001764584E1,7.877163887E-1,1.005159400E1
1.805085056E0,2.346389294E-1,-1.008708000E1,8.020820618E-1,1.012163890E1
1.807084789E0,2.250618339E-1,-1.015890789E1,8.164477348E-1,1.019414779E1
1.809084589E0,2.298503816E-1,-1.019242764E1,8.092648983E-1,1.022708766E1
1.811084322E0,2.322446555E-1,-1.024031353E1,8.212362528E-1,1.027581567E1
1.813084055E0,2.370332032E-1,-1.028341007E1,8.427847624E-1,1.032061014E1
1.815083788E0,2.418217510E-1,-1.030974770E1,8.427847624E-1,1.034696388E1
1.817083521E0,2.322446555E-1,-1.037439251E1,8.356019258E-1,1.041058058E1
1.819083254E0,2.442160249E-1,-1.044143200E1,8.571503758E-1,1.047940124E1
1.821082987E0,2.537931204E-1,-1.047255802E1,8.619389534E-1,1.051103331E1
1.823082787E0,2.442160249E-1,-1.054199219E1,8.667274714E-1,1.058038077E1
1.825082587E0,2.513988614E-1,-1.059945488E1,8.619389534E-1,1.063741434E1
1.827082320E0,2.513988614E-1,-1.062579155E1,8.667274714E-1,1.066404538E1
1.829082053E0,2.537931204E-1,-1.067607117E1,8.739103079E-1,1.071478538E1
1.831081786E0,2.442160249E-1,-1.071916866E1,8.834874034E-1,1.075828835E1
1.833081519E0,2.513988614E-1,-1.075029373E1,8.978530765E-1,1.079065136E1
1.835081252E0,2.490045726E-1,-1.077902508E1,9.050358534E-1,1.081981861E1
1.837080985E0,2.490045726E-1,-1.084127617E1,9.122186899E-1,1.088243609E1
1.839080785E0,2.561874092E-1,-1.090352726E1,9.098244309E-1,1.094441955E1
1.841080585E0,2.561874092E-1,-1.092507553E1,9.122186899E-1,1.096608637E1
1.843080318E0,2.466102988E-1,-1.098253822E1,9.241901040E-1,1.102411401E1
1.845080051E0,2.346389294E-1,-1.103281784E1,9.289786220E-1,1.107434541E1
1.847079784E0,2.418217510E-1,-1.104718399E1,9.361614585E-1,1.108941613E1
1.849079517E0,2.537931204E-1,-1.110225201E1,9.481328130E-1,1.114555366E1
1.851079250E0,2.466102988E-1,-1.116450310E1,9.457385540E-1,1.120720159E1
1.853078983E0,2.537931204E-1,-1.119562912E1,9.505270720E-1,1.123877324E1
1.855078783E0,2.633702159E-1,-1.125788021E1,9.385557175E-1,1.130000520E1
1.857078516E0,2.633702159E-1,-1.130815983E1,9.457385540E-1,1.135069443E1
1.859078249E0,2.609759569E-1,-1.132731438E1,9.505270720E-1,1.137012142E1
1.861077982E0,2.657645047E-1,-1.138477707E1,9.696813226E-1,1.142908840E1
1.863077715E0,2.633702159E-1,-1.144942188E1,9.768640995E-1,1.149403710E1
1.865077448E0,2.729473412E-1,-1.147336483E1,9.768640995E-1,1.151811027E1
1.867077181E0,2.705530524E-1,-1.150927925E1,9.624984860E-1,1.155262356E1
1.869076914E0,2.681587934E-1,-1.154519272E1,9.601042271E-1,1.158814844E1
1.871076714E0,2.753416002E-1,-1.160026169E1,9.624984860E-1,1.164337956E1
1.873076447E0,2.705530524E-1,-1.161941528E1,9.624984860E-1,1.166235027E1
1.875076180E0,2.777358890E-1,-1.165772438E1,9.696813226E-1,1.170128014E1
1.877075913E0,2.825244367E-1,-1.169363785E1,9.672870040E-1,1.173697705E1
1.879075646E0,2.777358890E-1,-1.171039772E1,9.744698405E-1,1.175415431E1
1.881075379E0,2.777358890E-1,-1.175588894E1,9.648927450E-1,1.179868976E1
1.883075112E0,2.873129845E-1,-1.179659176E1,9.672870040E-1,1.183966934E1
1.885074845E0,2.825244367E-1,-1.180377483E1,9.816526771E-1,1.184789274E1
1.887074645E0,2.729473412E-1,-1.182771778E1,9.720755816E-1,1.187073456E1
1.889074378E0,2.729473412E-1,-1.185884285E1,9.648927450E-1,1.190116263E1
1.891074111E0,2.801301479E-1,-1.187320900E1,9.601042271E-1,1.191525765E1
1.893073844E0,2.849186957E-1,-1.190672874E1,9.577099085E-1,1.194858052E1
1.895073577E0,2.825244367E-1,-1.191870022E1,9.553156495E-1,1.196026183E1
1.897073310E0,2.849186957E-1,-1.193546009E1,9.577099085E-1,1.197721147E1
1.899073043E0,2.944957912E-1,-1.197376823E1,9.744698405E-1,1.201696488E1
1.901072776E0,2.968900800E-1,-1.199771118E1,9.577099085E-1,1.203953594E1
1.903072576E0,2.968900800E-1,-1.200728798E1,9.648927450E-1,1.204965254E1
1.905072309E0,2.921015322E-1,-1.203362560E1,9.624984860E-1,1.207558991E1
1.907072042E0,2.944957912E-1,-1.204320240E1,9.553156495E-1,1.208462162E1
1.909071775E0,2.921015322E-1,-1.205277920E1,9.481328130E-1,1.209354231E1
1.911071508E0,3.016786277E-1,-1.205756760E1,9.505270720E-1,1.209873746E1
1.913071241E0,2.921015322E-1,-1.208390522E1,9.481328130E-1,1.212456368E1
1.915070974E0,2.777358890E-1,-1.211263657E1,9.457385540E-1,1.215267556E1
1.917070774E0,2.753416002E-1,-1.211742496E1,9.481328130E-1,1.215758021E1
1.919070574E0,2.873129845E-1,-1.213897324E1,9.409499764E-1,1.217877690E1
1.921070307E0,2.944957912E-1,-1.216770458E1,9.385557175E-1,1.220740142E1
1.923070040E0,2.921015322E-1,-1.217728138E1,9.409499764E-1,1.221707379E1
1.925069773E0,2.944957912E-1,-1.219404125E1,9.433442950E-1,1.223402094E1
1.927069506E0,2.921015322E-1,-1.222277260E1,9.385557175E-1,1.226223390E1
1.929069239E0,2.897072434E-1,-1.222516727E1,9.361614585E-1,1.226438109E1
1.931068972E0,2.921015322E-1,-1.223953247E1,9.098244309E-1,1.227677722E1
1.933068772E0,2.801301479E-1,-1.223235035E1,9.002473354E-1,1.226863127E1
1.935068505E0,2.801301479E-1,-1.223713875E1,9.002473354E-1,1.227340551E1
1.937068238E0,2.968900800E-1,-1.224192715E1,8.978530765E-1,1.227839827E1
1.939068004E0,2.944957912E-1,-1.224432182E1,8.978530765E-1,1.228072819E1
1.941067737E0,2.897072434E-1,-1.225629234E1,8.906702399E-1,1.229202692E1
1.943067470E0,2.849186957E-1,-1.224671555E1,8.930644989E-1,1.228253982E1
1.945067203E0,2.921015322E-1,-1.223713875E1,8.930644989E-1,1.227315983E1
1.947066936E0,2.849186957E-1,-1.223713875E1,8.810931444E-1,1.227212567E1
1.949066736E0,2.897072434E-1,-1.222756100E1,8.715160489E-1,1.226200304E1
1.951066469E0,2.992843390E-1,-1.221798420E1,8.715160489E-1,1.225268335E1
1.953066202E0,2.968900800E-1,-1.221319580E1,8.643332124E-1,1.224734123E1
1.955065935E0,2.897072434E-1,-1.220601273E1,8.547561169E-1,1.223933352E1
1.957065668E0,2.849186957E-1,-1.220361900E1,8.739103079E-1,1.223818674E1
1.959065401E0,3.016786277E-1,-1.219164753E1,8.571503758E-1,1.222546466E1
1.961065134E0,2.968900800E-1,-1.217967606E1,8.547561169E-1,1.221324120E1
1.963064867E0,2.705530524E-1,-1.215573311E1,8.475732803E-1,1.218824954E1
1.965064667E0,2.681587934E-1,-1.214136791E1,8.547561169E-1,1.217437193E1
1.967064400E0,2.753416002E-1,-1.212939644E1,8.619389534E-1,1.216310033E1
1.969064133E0,2.777358890E-1,-1.212221336E1,8.547561169E-1,1.215548444E1
1.971063866E0,2.921015322E-1,-1.209827042E1,8.427847624E-1,1.213110698E1
1.973063599E0,2.921015322E-1,-1.207911682E1,8.260248303E-1,1.211085065E1
1.975063332E0,2.753416002E-1,-1.203841400E1,8.356019258E-1,1.207052009E1
1.977063065E0,2.801301479E-1,-1.203123093E1,8.427847624E-1,1.206396604E1
1.979062798E0,2.801301479E-1,-1.201925945E1,8.427847624E-1,1.205202708E1
1.981062598E0,2.753416002E-1,-1.200489426E1,8.188419938E-1,1.203593791E1
1.983062331E0,2.705530524E-1,-1.198573971E1,8.356019258E-1,1.201787776E1
1.985062064E0,2.681587934E-1,-1.197616291E1,8.427847624E-1,1.200877485E1
1.987061797E0,2.657645047E-1,-1.193306541E1,8.475732803E-1,1.196607962E1
1.989061530E0,2.705530524E-1,-1.192588329E1,8.427847624E-1,1.195868628E1
1.991061263E0,2.633702159E-1,-1.189954567E1,8.547561169E-1,1.193311188E1
1.993060996E0,2.729473412E-1,-1.188757420E1,8.523618579E-1,1.192121811E1
1.995060796E0,2.873129845E-1,-1.187320900E1,8.499675393E-1,1.190706032E1
1.997060596E0,2.801301479E-1,-1.183968925E1,8.451790214E-1,1.187312268E1
1.999060296E0,2.849186957E-1,-1.182532310E1,8.475732803E-1,1.185908199E1
2.001060029E0,2.753416002E-1,-1.178222656E1,8.571503758E-1,1.181657237E1
2.003059762E0,2.609759569E-1,-1.175349522E1,8.547561169E-1,1.178742407E1
2.005059495E0,2.633702159E-1,-1.173194695E1,8.571503758E-1,1.176616547E1
2.007059228E0,2.657645047E-1,-1.168166637E1,8.475732803E-1,1.171538905E1
2.009058961E0,2.681587934E-1,-1.165054131E1,8.523618579E-1,1.168475685E1
2.011058761E0,2.681587934E-1,-1.163856983E1,8.403904438E-1,1.167195241E1
2.013058494E0,2.801301479E-1,-1.159307861E1,8.451790214E-1,1.162722117E1
2.015058227E0,2.681587934E-1,-1.155477047E1,8.451790214E-1,1.158874270E1
2.017057960E0,2.609759569E-1,-1.153082752E1,8.427847624E-1,1.156453103E1
2.019057693E0,2.681587934E-1,-1.147575951E1,8.499675393E-1,1.151031755E1
2.021057426E0,2.657645047E-1,-1.142547894E1,8.619389534E-1,1.146102694E1
2.023057159E0,2.681587934E-1,-1.140153694E1,8.619389534E-1,1.143721524E1
2.025056892E0,2.657645047E-1,-1.136083412E1,8.595446348E-1,1.139640293E1
2.027056692E0,2.681587934E-1,-1.131055450E1,8.619389534E-1,1.134651890E1
2.029056425E0,2.705530524E-1,-1.128421688E1,8.691217303E-1,1.132087109E1
2.031056158E0,2.657645047E-1,-1.121717739E1,8.619389534E-1,1.125338341E1
2.033055891E0,2.705530524E-1,-1.115492630E1,8.523618579E-1,1.119071492E1
2.035055624E0,2.657645047E-1,-1.110704041E1,8.810931444E-1,1.114510217E1
2.037055357E0,2.561874092E-1,-1.107591534E1,8.834874034E-1,1.111404888E1
2.039055090E0,2.561874092E-1,-1.101845264E1,8.643332124E-1,1.105527035E1
2.041054823E0,2.657645047E-1,-1.095620155E1,8.715160489E-1,1.099402217E1
2.043054623E0,2.657645047E-1,-1.093465328E1,8.715160489E-1,1.097254817E1
2.045054356E0,2.561874092E-1,-1.087958431E1,8.763045669E-1,1.091782471E1
2.047054089E0,2.633702159E-1,-1.082212257E1,8.643332124E-1,1.085977775E1
2.049053822E0,2.561874092E-1,-1.079099655E1,8.547561169E-1,1.082782742E1
2.051053555E0,2.561874092E-1,-1.073114014E1,8.451790214E-1,1.076741976E1
2.053053288E0,2.490045726E-1,-1.069043732E1,8.595446348E-1,1.072782691E1
2.055053021E0,2.466102988E-1,-1.066170597E1,8.643332124E-1,1.069952629E1
2.057052754E0,2.466102988E-1,-1.060184860E1,8.786988258E-1,1.064105831E1
2.059052554E0,2.442160249E-1,-1.055396366E1,8.763045669E-1,1.059309681E1
2.061052287E0,2.513988614E-1,-1.050607777E1,8.810931444E-1,1.054595641E1
2.063052020E0,2.585816681E-1,-1.048452950E1,8.834874034E-1,1.052486452E1
2.065051753E0,2.418217510E-1,-1.041988373E1,8.715160489E-1,1.045906281E1
2.067051486E0,2.490045726E-1,-1.039115238E1,8.715160489E-1,1.043060839E1
2.069051219E0,2.466102988E-1,-1.033608437E1,8.595446348E-1,1.037469391E1
2.071050952E0,2.490045726E-1,-1.027143860E1,8.475732803E-1,1.030935665E1
2.073050752E0,2.466102988E-1,-1.020679379E1,8.595446348E-1,1.024589054E1
2.075050552E0,2.370332032E-1,-1.016848469E1,8.595446348E-1,1.020750129E1
2.077050385E0,2.418217510E-1,-1.010862827E1,8.571503758E-1,1.014778548E1
2.079050151E0,2.466102988E-1,-1.006074238E1,8.403904438E-1,1.009879250E1
2.081049917E0,2.466102988E-1,-1.001525116E1,8.332076073E-1,1.005287558E1
2.083049683E0,2.442160249E-1,-9.962577820E0,8.379961848E-1,1.000074177E1
2.085049449E0,2.490045726E-1,-9.902720451E0,8.451790214E-1,9.941841036E0
2.087049215E0,2.513988614E-1,-9.864412308E0,8.547561169E-1,9.904566603E0
2.089049048E0,2.585816681E-1,-9.797372818E0,8.332076073E-1,9.836138141E0
2.091048881E0,2.561874092E-1,-9.725543976E0,8.212362528E-1,9.763517122E0
2.093048647E0,2.537931204E-1,-9.694418907E0,8.236305118E-1,9.732653087E0
2.095048413E0,2.537931204E-1,-9.636956215E0,8.140534163E-1,9.674606917E0
2.097048179E0,2.394274771E-1,-9.572310448E0,8.092648983E-1,9.609441321E0
2.099047945E0,2.442160249E-1,-9.545973778E0,8.164477348E-1,9.583936756E0
2.101047711E0,2.394274771E-1,-9.469356537E0,8.092648983E-1,9.506889524E0
2.103047477E0,2.250618339E-1,-9.407105446E0,8.044763207E-1,9.444123456E0
2.105047310E0,2.322446555E-1,-9.375980377E0,7.925049663E-1,9.412279731E0
2.107047076E0,2.370332032E-1,-9.284997940E0,7.805336118E-1,9.320761997E0
2.109046842E0,2.370332032E-1,-9.222746849E0,7.829278708E-1,9.258953517E0
2.111046608E0,2.466102988E-1,-9.198803902E0,7.948992252E-1,9.236377788E0
2.113046374E0,2.370332032E-1,-9.131764412E0,7.996878028E-1,9.169776802E0
2.115046140E0,2.298503816E-1,-9.079090118E0,8.044763207E-1,9.117559472E0
2.117045906E0,2.130904645E-1,-9.012050629E0,7.829278708E-1,9.048504856E0
2.119045672E0,2.226675600E-1,-8.985713005E0,7.781392932E-1,9.022090656E0
2.121045505E0,2.322446555E-1,-8.940221786E0,7.757450342E-1,8.976819232E0
2.123045271E0,2.418217510E-1,-8.887548447E0,7.541965842E-1,8.922769057E0
2.125045037E0,2.394274771E-1,-8.858817101E0,7.422251701E-1,8.893079565E0
2.127044803E0,2.178790122E-1,-8.806142807E0,7.446194887E-1,8.840253423E0
2.129044569E0,2.394274771E-1,-8.748680115E0,7.302538157E-1,8.782368695E0
2.131044335E0,2.370332032E-1,-8.724737167E0,7.230709791E-1,8.757856759E0
2.133044101E0,2.394274771E-1,-8.664880753E0,7.087053657E-1,8.697111432E0
2.135043867E0,2.250618339E-1,-8.600234985E0,6.967339516E-1,8.631345946E0
2.137043600E0,2.250618339E-1,-8.573898315E0,6.919454336E-1,8.604718103E0
2.139043333E0,2.250618339E-1,-8.514040947E0,7.039167881E-1,8.546054348E0
2.141043066E0,2.418217510E-1,-8.461367607E0,6.536370516E-1,8.490021257E0
2.143042799E0,2.274561077E-1,-8.432636261E0,6.680026650E-1,8.462110739E0
2.145042532E0,2.250618339E-1,-8.391933441E0,7.134938836E-1,8.425216509E0
2.147042265E0,2.083019018E-1,-8.334470749E0,6.464542150E-1,8.362098744E0
2.149041998E0,2.130904645E-1,-8.312922478E0,6.703969240E-1,8.342632660E0
2.151041731E0,2.106961906E-1,-8.236305237E0,6.823683381E-1,8.267208924E0
2.153041531E0,2.154847383E-1,-8.209968567E0,6.440598965E-1,8.238011331E0
2.155041264E0,2.226675600E-1,-8.138139725E0,6.416656375E-1,8.166433359E0
2.157040997E0,2.250618339E-1,-8.107014656E0,6.608198285E-1,8.137015565E0
2.159040730E0,2.346389294E-1,-8.071100235E0,6.392713785E-1,8.099776684E0
2.161040463E0,2.298503816E-1,-8.006455421E0,6.129343510E-1,8.033171736E0
2.163040196E0,2.202732861E-1,-7.970541000E0,6.440598965E-1,7.999553569E0
2.165039929E0,2.226675600E-1,-7.925049782E0,6.344828010E-1,7.953525213E0
2.167039729E0,2.130904645E-1,-7.881952763E0,6.153286099E-1,7.908806243E0
2.169039529E0,2.154847383E-1,-7.855615616E0,6.344828010E-1,7.884142236E0
2.171039262E0,2.226675600E-1,-7.817307472E0,6.296942830E-1,7.845788160E0
2.173038995E0,2.226675600E-1,-7.771816254E0,5.674431324E-1,7.795684731E0
2.175038728E0,2.250618339E-1,-7.750267506E0,5.842030644E-1,7.775512360E0
2.177038461E0,2.083019018E-1,-7.711959362E0,6.081457734E-1,7.738704553E0
2.179038194E0,2.178790122E-1,-7.664073467E0,5.578660369E-1,7.687438318E0
2.181037927E0,2.035133541E-1,-7.642525196E0,5.722316504E-1,7.666619732E0
2.183037727E0,2.106961906E-1,-7.609005451E0,5.937801600E-1,7.635046281E0
2.185037460E0,2.154847383E-1,-7.582668304E0,5.458946824E-1,7.605346362E0
2.187037193E0,2.130904645E-1,-7.556331158E0,5.506832004E-1,7.579366735E0
2.189036926E0,2.059076279E-1,-7.532388687E0,5.865973234E-1,7.558000642E0
2.191036659E0,2.083019018E-1,-7.532388687E0,5.411061049E-1,7.554671722E0
2.193036392E0,2.178790122E-1,-7.498868465E0,5.554717779E-1,7.522569270E0
2.195036125E0,2.226675600E-1,-7.486897469E0,5.842030644E-1,7.512955994E0
2.197035858E0,2.322446555E-1,-7.448588848E0,5.530774593E-1,7.472704202E0
2.199035658E0,2.154847383E-1,-7.405491829E0,5.506832004E-1,7.429064200E0
2.201035391E0,2.130904645E-1,-7.383943558E0,5.674431324E-1,7.408780043E0
2.203035124E0,2.178790122E-1,-7.386337757E0,5.411061049E-1,7.409335499E0
2.205034857E0,2.130904645E-1,-7.357606411E0,5.195576549E-1,7.379005340E0
2.207034590E0,2.202732861E-1,-7.331269264E0,5.602602959E-1,7.355944599E0
2.209034323E0,2.250618339E-1,-7.319298267E0,5.722316504E-1,7.345081961E0
2.211034056E0,2.202732861E-1,-7.297749519E0,5.195576549E-1,7.319536087E0
2.213033789E0,2.154847383E-1,-7.276201248E0,5.482889414E-1,7.300010893E0
2.215033589E0,2.298503816E-1,-7.252258301E0,5.818088055E-1,7.279188358E0
2.217033322E0,2.322446555E-1,-7.237892628E0,5.339232683E-1,7.261274084E0
2.219033055E0,2.298503816E-1,-7.230710030E0,5.387118459E-1,7.254392406E0
2.221032788E0,2.011190802E-1,-7.218738556E0,5.578660369E-1,7.243055276E0
2.223032521E0,2.202732861E-1,-7.216344357E0,5.004034638E-1,7.237026311E0
2.225032254E0,2.202732861E-1,-7.209161282E0,5.075862408E-1,7.230364479E0
2.227031987E0,2.059076279E-1,-7.175641537E0,5.387118459E-1,7.198780443E0
2.229031720E0,2.130904645E-1,-7.180429935E0,5.004034638E-1,7.200998905E0
2.231031520E0,2.130904645E-1,-7.170853138E0,5.075862408E-1,7.191952869E0
2.233031253E0,2.130904645E-1,-7.149304390E0,5.339232683E-1,7.172380000E0
2.235030986E0,2.298503816E-1,-7.154093266E0,5.123748183E-1,7.176099888E0
2.237030719E0,2.154847383E-1,-7.158881664E0,5.075862408E-1,7.180088032E0
2.239030452E0,2.035133541E-1,-7.146910191E0,5.339232683E-1,7.169715267E0
2.241030185E0,2.035133541E-1,-7.144515991E0,5.530774593E-1,7.168781006E0
2.243029918E0,1.987248063E-1,-7.146910191E0,5.458946824E-1,7.170482398E0
2.245029718E0,1.963305324E-1,-7.163670063E0,5.363175869E-1,7.186400421E0
2.247029518E0,1.987248063E-1,-7.178035736E0,5.267404318E-1,7.200079448E0
2.249029251E0,2.106961906E-1,-7.173247337E0,5.339232683E-1,7.196175672E0
2.251028984E0,2.178790122E-1,-7.178035736E0,5.195576549E-1,7.200111697E0
2.253028717E0,2.202732861E-1,-7.201978683E0,5.195576549E-1,7.224054086E0
2.255028450E0,2.226675600E-1,-7.192401409E0,5.363175869E-1,7.215805944E0
2.257028183E0,2.202732861E-1,-7.201978683E0,5.387118459E-1,7.225456922E0
2.259027916E0,2.202732861E-1,-7.209161282E0,5.387118459E-1,7.232616204E0
2.261027716E0,2.130904645E-1,-7.223526955E0,5.315290093E-1,7.246190192E0
2.263027449E0,2.083019018E-1,-7.237892628E0,5.363175869E-1,7.260724201E0
2.265027182E0,2.154847383E-1,-7.249864101E0,5.363175869E-1,7.272867365E0
2.267026915E0,2.035133541E-1,-7.273807049E0,5.339232683E-1,7.296215507E0
2.269026648E0,1.963305324E-1,-7.273807049E0,5.387118459E-1,7.296370681E0
2.271026381E0,2.011190802E-1,-7.309720993E0,5.411061049E-1,7.332480187E0
2.273026114E0,2.011190802E-1,-7.348029613E0,5.674431324E-1,7.372650798E0
2.275025847E0,2.035133541E-1,-7.376760483E0,5.722316504E-1,7.401720203E0
2.277025647E0,2.130904645E-1,-7.386337757E0,5.746259689E-1,7.411719639E0
2.279025380E0,2.035133541E-1,-7.405491829E0,5.818088055E-1,7.431098734E0
2.281025113E0,2.083019018E-1,-7.436617374E0,6.057515144E-1,7.464154510E0
2.283024846E0,2.011190802E-1,-7.446194649E0,5.985686779E-1,7.472920988E0
2.285024579E0,2.130904645E-1,-7.446194649E0,5.770202279E-1,7.471557712E0
2.287024312E0,2.154847383E-1,-7.477320194E0,5.794144869E-1,7.502830940E0
2.289024045E0,2.130904645E-1,-7.479714394E0,5.770202279E-1,7.504964177E0
2.291023778E0,2.154847383E-1,-7.498868465E0,5.937801600E-1,7.525426022E0
2.293023578E0,2.274561077E-1,-7.515628815E0,5.889915824E-1,7.542103410E0
2.295023311E0,2.250618339E-1,-7.527599812E0,5.937801600E-1,7.554335618E0
2.297023044E0,2.154847383E-1,-7.563514233E0,5.913859010E-1,7.589658655E0
2.299022777E0,2.298503816E-1,-7.601822376E0,5.937801600E-1,7.628440831E0
2.301022510E0,2.346389294E-1,-7.618582249E0,6.009629965E-1,7.645849033E0
2.303022243E0,2.418217510E-1,-7.656890869E0,6.177229285E-1,7.685573314E0
2.305021976E0,2.322446555E-1,-7.690410614E0,6.296942830E-1,7.719641694E0
2.307021709E0,2.370332032E-1,-7.709564686E0,6.392713785E-1,7.739653757E0
2.309021509E0,2.298503816E-1,-7.755055904E0,6.296942830E-1,7.783973161E0
2.311021275E0,2.154847383E-1,-7.788576126E0,6.512427330E-1,7.818725525E0
2.313021041E0,2.106961906E-1,-7.824490070E0,6.584255695E-1,7.854970527E0
2.315020807E0,2.130904645E-1,-7.846038342E0,6.703969240E-1,7.877509584E0
2.317020573E0,2.178790122E-1,-7.886741161E0,6.751855016E-1,7.918587808E0
2.319020339E0,2.202732861E-1,-7.944203854E0,6.727912426E-1,7.975684500E0
2.321020105E0,2.202732861E-1,-7.965752125E0,6.775797606E-1,7.997552223E0
2.323019938E0,2.298503816E-1,-8.008849144E0,6.799740195E-1,8.040948979E0
2.325019771E0,2.226675600E-1,-8.054340363E0,6.799740195E-1,8.086058631E0
2.327019571E0,2.226675600E-1,-8.085466385E0,6.751855016E-1,8.116663290E0
2.329019371E0,2.226675600E-1,-8.147717476E0,6.943396926E-1,8.180280467E0
2.331019171E0,2.274561077E-1,-8.209968567E0,6.943396926E-1,8.242416379E0
2.333018971E0,2.322446555E-1,-8.238699913E0,7.087053657E-1,8.272386423E0
2.335018771E0,2.394274771E-1,-8.296162605E0,7.110996246E-1,8.330024140E0
2.337018571E0,2.370332032E-1,-8.341653824E0,7.134938836E-1,8.375466959E0
2.339018437E0,2.322446555E-1,-8.372778893E0,7.110996246E-1,8.406130301E0
2.341018303E0,2.298503816E-1,-8.444606781E0,7.110996246E-1,8.477610368E0
2.343018169E0,2.298503816E-1,-8.482915878E0,7.254652381E-1,8.516982612E0
2.345018035E0,2.370332032E-1,-8.502069473E0,7.350423932E-1,8.537075459E0
2.347017968E0,2.442160249E-1,-8.564320564E0,7.063110471E-1,8.596865911E0
2.349017834E0,2.466102988E-1,-8.616994858E0,7.230709791E-1,8.650794684E0
2.351017700E0,2.346389294E-1,-8.669669151E0,7.374366522E-1,8.704138753E0
2.353017566E0,2.394274771E-1,-8.698400497E0,7.326480746E-1,8.732483606E0
2.355017499E0,2.394274771E-1,-8.746285439E0,7.374366522E-1,8.780583540E0
2.357017365E0,2.466102988E-1,-8.808537483E0,7.446194887E-1,8.843393433E0
2.359017231E0,2.418217510E-1,-8.842057228E0,7.541965842E-1,8.877458323E0
2.361017097E0,2.370332032E-1,-8.899519920E0,7.613793612E-1,8.935174206E0
2.363016963E0,2.274561077E-1,-8.961771011E0,7.494080067E-1,8.995926206E0
2.365016829E0,2.322446555E-1,-8.988107681E0,7.494080067E-1,9.022285167E0
2.367016695E0,2.370332032E-1,-9.040781975E0,7.589851022E-1,9.075680792E0
2.369016561E0,2.442160249E-1,-9.098244667E0,7.613793612E-1,9.133312434E0
2.371016461E0,2.490045726E-1,-9.129369736E0,7.709565163E-1,9.165247896E0
2.373016294E0,2.346389294E-1,-9.184437752E0,7.781392932E-1,9.220328248E0
2.375016127E0,2.298503816E-1,-9.249083519E0,7.829278708E-1,9.285006903E0
2.377015960E0,2.298503816E-1,-9.282603264E0,7.805336118E-1,9.318196568E0
2.379015793E0,2.418217510E-1,-9.340065956E0,7.853221297E-1,9.376142100E0
2.381015626E0,2.346389294E-1,-9.407105446E0,7.829278708E-1,9.442545438E0
2.383015459E0,2.322446555E-1,-9.445414543E0,7.805336118E-1,9.480454957E0
2.385015292E0,2.298503816E-1,-9.512454033E0,7.829278708E-1,9.547386500E0
2.387015158E0,2.322446555E-1,-9.577098846E0,7.733507752E-1,9.611078572E0
2.389014958E0,2.346389294E-1,-9.605830193E0,8.020820618E-1,9.642114122E0
2.391014758E0,2.322446555E-1,-9.672870636E0,8.116591573E-1,9.709642347E0
2.393014558E0,2.298503816E-1,-9.718361855E0,8.020820618E-1,9.754113182E0
2.395014358E0,2.537931204E-1,-9.802161217E0,7.925049663E-1,9.837420373E0
2.397014158E0,2.561874092E-1,-9.830892563E0,7.972934842E-1,9.866496717E0
2.399013958E0,2.466102988E-1,-9.881172180E0,8.140534163E-1,9.917714619E0
2.401013758E0,2.490045726E-1,-9.955394745E0,8.116591573E-1,9.991530333E0
2.403013558E0,2.513988614E-1,-9.998491287E0,8.164477348E-1,1.003491985E1
2.405013291E0,2.585816681E-1,-1.006553173E1,8.092648983E-1,1.010132185E1
2.407012957E0,2.705530524E-1,-1.013017654E1,8.116591573E-1,1.016624151E1
2.409012690E0,2.657645047E-1,-1.016848469E1,8.140534163E-1,1.020447914E1
2.411012423E0,2.561874092E-1,-1.022355366E1,8.164477348E-1,1.025930155E1
2.413012156E0,2.490045726E-1,-1.028819847E1,8.068706393E-1,1.032279377E1
2.415011922E0,2.490045726E-1,-1.030735302E1,8.044763207E-1,1.034169772E1
2.417011722E0,2.490045726E-1,-1.035284424E1,8.140534163E-1,1.038778466E1
2.419011522E0,2.490045726E-1,-1.041988373E1,8.236305118E-1,1.045535018E1
2.421011255E0,2.513988614E-1,-1.047734642E1,8.332076073E-1,1.051343066E1
2.423010988E0,2.585816681E-1,-1.051086617E1,8.284190893E-1,1.054663217E1
2.425010721E0,2.466102988E-1,-1.056832886E1,8.212362528E-1,1.060305713E1
2.427010454E0,2.322446555E-1,-1.059227180E1,8.092648983E-1,1.062567971E1
2.429010187E0,2.418217510E-1,-1.064494610E1,8.116591573E-1,1.067858351E1
2.431009920E0,2.537931204E-1,-1.069283104E1,8.068706393E-1,1.072623358E1
2.433009720E0,2.490045726E-1,-1.076465988E1,8.284190893E-1,1.079936034E1
2.435009453E0,2.466102988E-1,-1.079578495E1,8.260248303E-1,1.083014803E1
2.437009186E0,2.418217510E-1,-1.084606457E1,8.116591573E-1,1.087908015E1
2.439008919E0,2.466102988E-1,-1.089634418E1,8.284190893E-1,1.093057233E1
2.441008652E0,2.513988614E-1,-1.092747021E1,8.308133483E-1,1.096189114E1
2.443008385E0,2.490045726E-1,-1.098732662E1,8.308133483E-1,1.102150627E1
2.445008118E0,2.490045726E-1,-1.104239559E1,8.332076073E-1,1.107658515E1
2.447007851E0,2.466102988E-1,-1.107112694E1,8.356019258E-1,1.110535451E1
2.449007651E0,2.394274771E-1,-1.113337803E1,8.236305118E-1,1.116636911E1
2.451007384E0,2.561874092E-1,-1.118126297E1,8.451790214E-1,1.121608671E1
2.453007117E0,2.585816681E-1,-1.120760059E1,8.451790214E-1,1.124239757E1
2.455006850E0,2.585816681E-1,-1.124830341E1,8.212362528E-1,1.128120664E1
2.457006583E0,2.466102988E-1,-1.130337143E1,8.403904438E-1,1.133725180E1
2.459006316E0,2.513988614E-1,-1.133449650E1,8.403904438E-1,1.136838900E1
2.461006049E0,2.633702159E-1,-1.137280560E1,8.379961848E-1,1.140667825E1
2.463005782E0,2.561874092E-1,-1.142308521E1,8.332076073E-1,1.145629708E1
2.465005582E0,2.585816681E-1,-1.144942188E1,8.356019258E-1,1.148278522E1
2.467005315E0,2.585816681E-1,-1.150449085E1,8.451790214E-1,1.153839251E1
2.469005048E0,2.585816681E-1,-1.155477047E1,8.403904438E-1,1.158817678E1
2.471004781E0,2.681587934E-1,-1.159307861E1,8.379961848E-1,1.162641899E1
2.473004547E0,2.681587934E-1,-1.161462688E1,8.403904438E-1,1.164807808E1
2.475004247E0,2.729473412E-1,-1.166730118E1,8.499675393E-1,1.170140427E1
2.477003980E0,2.657645047E-1,-1.170321560E1,8.547561169E-1,1.173739725E1
2.479003713E0,2.633702159E-1,-1.172476387E1,8.547561169E-1,1.175882901E1
2.481003513E0,2.753416002E-1,-1.176307201E1,8.475732803E-1,1.179678162E1
2.483003246E0,2.681587934E-1,-1.179898643E1,8.403904438E-1,1.183191642E1
2.485002979E0,2.753416002E-1,-1.180377483E1,8.475732803E-1,1.183736853E1
2.487002712E0,2.681587934E-1,-1.183729458E1,8.619389534E-1,1.187166336E1
2.489002445E0,2.705530524E-1,-1.187081432E1,8.475732803E-1,1.190410904E1
2.491002178E0,2.729473412E-1,-1.188039207E1,8.403904438E-1,1.191320579E1
2.493001911E0,2.801301479E-1,-1.190194035E1,8.595446348E-1,1.193622528E1
2.495001711E0,2.657645047E-1,-1.193067169E1,8.715160489E-1,1.196541257E1
2.497001511E0,2.705530524E-1,-1.193546009E1,8.667274714E-1,1.196994666E1
2.499001244E0,2.825244367E-1,-1.194503689E1,8.643332124E-1,1.197959925E1
2.501000977E0,2.705530524E-1,-1.198095131E1,8.739103079E-1,1.201582758E1
2.503000710E0,2.753416002E-1,-1.199531651E1,8.786988258E-1,1.203060858E1
2.505000443E0,2.825244367E-1,-1.200728798E1,8.667274714E-1,1.204184376E1
2.507000176E0,2.777358890E-1,-1.202883625E1,8.739103079E-1,1.206373731E1
2.508999909E0,2.944957912E-1,-1.203841400E1,8.906702399E-1,1.207490923E1
2.510999709E0,2.944957912E-1,-1.205996227E1,8.882759809E-1,1.209621643E1
2.512999475E0,2.897072434E-1,-1.209108734E1,8.834874034E-1,1.212678331E1
2.514999208E0,2.777358890E-1,-1.211263657E1,8.954587579E-1,1.214886613E1
2.516998941E0,2.873129845E-1,-1.211981869E1,8.906702399E-1,1.215589763E1
2.518998674E0,2.992843390E-1,-1.211981869E1,8.954587579E-1,1.215653826E1
2.520998407E0,2.944957912E-1,-1.214136791E1,9.026415944E-1,1.217843604E1
2.522998140E0,2.897072434E-1,-1.215094471E1,8.978530765E-1,1.218751524E1
2.524997873E0,2.921015322E-1,-1.217009926E1,9.074301720E-1,1.220737764E1
2.526997673E0,3.016786277E-1,-1.217967606E1,9.194015265E-1,1.221805295E1
2.528997406E0,3.064671755E-1,-1.217967606E1,9.289786220E-1,1.221889652E1
2.530997139E0,3.136500120E-1,-1.219643593E1,9.409499764E-1,1.223669941E1
2.532996839E0,2.968900800E-1,-1.221080112E1,9.313728809E-1,1.224986789E1
2.534996572E0,2.921015322E-1,-1.222277260E1,9.265843630E-1,1.226132341E1
2.536996305E0,2.992843390E-1,-1.222995567E1,9.385557175E-1,1.226956697E1
2.538996038E0,2.944957912E-1,-1.222756100E1,9.433442950E-1,1.226743144E1
2.540995771E0,2.968900800E-1,-1.222277260E1,9.409499764E-1,1.226253239E1
2.542995571E0,2.897072434E-1,-1.222995567E1,9.409499764E-1,1.226952048E1
2.544995304E0,2.873129845E-1,-1.223953247E1,9.481328130E-1,1.227956268E1
2.546995037E0,2.897072434E-1,-1.224192715E1,9.481328130E-1,1.228200580E1
2.548994770E0,2.921015322E-1,-1.222516727E1,9.505270720E-1,1.226554279E1
2.550994503E0,2.921015322E-1,-1.221798420E1,9.361614585E-1,1.225727782E1
2.552994203E0,2.944957912E-1,-1.219883060E1,9.385557175E-1,1.223842648E1
2.554993936E0,2.968900800E-1,-1.218685913E1,9.385557175E-1,1.222655168E1
2.556993669E0,3.112557232E-1,-1.216770458E1,9.553156495E-1,1.220911720E1
2.558993469E0,2.921015322E-1,-1.216291618E1,9.577099085E-1,1.220405923E1
2.560993202E0,2.944957912E-1,-1.215812778E1,9.601042271E-1,1.219953274E1
2.562992935E0,2.944957912E-1,-1.213657856E1,9.553156495E-1,1.217768019E1
2.564992668E0,2.873129845E-1,-1.212221336E1,9.505270720E-1,1.216281659E1
2.566992401E0,2.825244367E-1,-1.211503029E1,9.481328130E-1,1.215535827E1
2.568992134E0,2.825244367E-1,-1.209108734E1,9.601042271E-1,1.213243641E1
2.570991867E0,2.921015322E-1,-1.206953907E1,9.696813226E-1,1.211195189E1
2.572991633E0,2.921015322E-1,-1.206714535E1,9.744698405E-1,1.210995093E1
2.574991433E0,2.968900800E-1,-1.205517387E1,9.792584181E-1,1.209852503E1
2.576991166E0,2.992843390E-1,-1.201686573E1,9.696813226E-1,1.205963992E1
2.578990899E0,2.968900800E-1,-1.200728798E1,9.720755816E-1,1.205022984E1
2.580990632E0,3.040728867E-1,-1.198095131E1,9.768640995E-1,1.202455480E1
2.582990365E0,2.873129845E-1,-1.196897984E1,9.744698405E-1,1.201201975E1
2.584990098E0,2.992843390E-1,-1.196179676E1,9.624984860E-1,1.200418911E1
2.586989831E0,2.897072434E-1,-1.192588329E1,9.624984860E-1,1.196816719E1
2.588989631E0,2.873129845E-1,-1.189236259E1,9.577099085E-1,1.193432215E1
2.590989431E0,2.873129845E-1,-1.187081432E1,9.481328130E-1,1.191208367E1
2.592989164E0,2.849186957E-1,-1.186363125E1,9.433442950E-1,1.190448754E1
2.594988897E0,2.897072434E-1,-1.184208298E1,9.361614585E-1,1.188256108E1
2.596988630E0,2.897072434E-1,-1.181095791E1,9.337671995E-1,1.185135343E1
2.598988363E0,2.921015322E-1,-1.180138016E1,9.409499764E-1,1.184243572E1
2.600988096E0,2.849186957E-1,-1.176067829E1,9.577099085E-1,1.180304795E1
2.602987829E0,2.849186957E-1,-1.172476387E1,9.457385540E-1,1.176629457E1
2.604987629E0,2.825244367E-1,-1.171518707E1,9.337671995E-1,1.175573687E1
2.606987362E0,2.873129845E-1,-1.167927265E1,9.217957854E-1,1.171911541E1
2.608987095E0,2.897072434E-1,-1.162899303E1,9.289786220E-1,1.166963627E1
2.610986828E0,2.849186957E-1,-1.160505009E1,9.337671995E-1,1.164604170E1
2.612986594E0,2.753416002E-1,-1.158110714E1,9.122186899E-1,1.162024090E1
2.614986327E0,2.825244367E-1,-1.153561592E1,9.146129489E-1,1.157526551E1
2.616986060E0,2.825244367E-1,-1.150927925E1,9.146129489E-1,1.154901926E1
2.618985793E0,2.944957912E-1,-1.146378803E1,9.122186899E-1,1.150379532E1
2.620985593E0,2.777358890E-1,-1.141350842E1,9.074301720E-1,1.145289226E1
2.622985326E0,2.729473412E-1,-1.138717079E1,9.050358534E-1,1.142634013E1
2.624985059E0,2.753416002E-1,-1.134167957E1,9.098244309E-1,1.138144494E1
2.626984792E0,2.705530524E-1,-1.128182316E1,8.954587579E-1,1.132053793E1
2.628984525E0,2.705530524E-1,-1.125788021E1,8.786988258E-1,1.129536088E1
2.630984258E0,2.705530524E-1,-1.121478367E1,8.739103079E-1,1.125203497E1
2.632983991E0,2.633702159E-1,-1.115732098E1,8.810931444E-1,1.119515522E1
2.634983724E0,2.561874092E-1,-1.108788681E1,8.667274714E-1,1.112466100E1
2.636983524E0,2.633702159E-1,-1.105436707E1,8.571503758E-1,1.109067635E1
2.638983257E0,2.537931204E-1,-1.099929810E1,8.643332124E-1,1.103612439E1
2.640982990E0,2.490045726E-1,-1.095620155E1,8.499675393E-1,1.099194253E1
2.642982723E0,2.537931204E-1,-1.092986488E1,8.379961848E-1,1.096488007E1
2.644982456E0,2.657645047E-1,-1.088437366E1,8.475732803E-1,1.092055865E1
2.646982189E0,2.466102988E-1,-1.082451630E1,8.427847624E-1,1.086007624E1
2.648981922E0,2.466102988E-1,-1.079817963E1,8.356019258E-1,1.083326961E1
2.650981655E0,2.490045726E-1,-1.075508213E1,8.140534163E-1,1.078871994E1
2.652981455E0,2.370332032E-1,-1.069043732E1,8.068706393E-1,1.072346376E1
2.654981188E0,2.346389294E-1,-1.065931129E1,8.020820618E-1,1.069202078E1
2.656980921E0,2.346389294E-1,-1.061621475E1,7.948992252E-1,1.064851801E1
2.658980654E0,2.394274771E-1,-1.056114578E1,7.877163887E-1,1.059318757E1
2.660980387E0,2.418217510E-1,-1.053241444E1,7.853221297E-1,1.056441965E1
2.662980120E0,2.466102988E-1,-1.047255802E1,7.877163887E-1,1.050503619E1
2.664979853E0,2.490045726E-1,-1.043903828E1,7.781392932E-1,1.047096100E1
2.666979653E0,2.466102988E-1,-1.040791225E1,7.733507752E-1,1.043951750E1
2.668979453E0,2.490045726E-1,-1.035523891E1,7.661679387E-1,1.038652924E1
2.670979186E0,2.537931204E-1,-1.028580475E1,7.685621977E-1,1.031760041E1
2.672978919E0,2.537931204E-1,-1.022115898E1,7.661679387E-1,1.025297592E1
2.674978652E0,2.466102988E-1,-1.019242764E1,7.565908432E-1,1.022344499E1
2.676978385E0,2.274561077E-1,-1.013735962E1,7.470137477E-1,1.016739032E1
2.678978118E0,2.370332032E-1,-1.006313705E1,7.398309112E-1,1.009307990E1
2.680977851E0,2.250618339E-1,-1.003201103E1,7.398309112E-1,1.006177161E1
2.682977651E0,2.298503816E-1,-9.960183144E0,7.350423932E-1,9.989913251E0
2.684977384E0,2.298503816E-1,-9.909903526E0,7.110996246E-1,9.938042150E0
2.686977117E0,2.274561077E-1,-9.883566856E0,7.087053657E-1,9.911553530E0
2.688976850E0,2.370332032E-1,-9.802161217E0,7.110996246E-1,9.830778806E0
2.690976583E0,2.490045726E-1,-9.735121727E0,7.182824612E-1,9.764759496E0
2.692976316E0,2.466102988E-1,-9.699207306E0,7.087053657E-1,9.728191111E0
2.694976049E0,2.370332032E-1,-9.646533012E0,6.919454336E-1,9.674222056E0
2.696975782E0,2.274561077E-1,-9.572310448E0,6.799740195E-1,9.599126432E0
2.698975582E0,2.250618339E-1,-9.541185379E0,6.727912426E-1,9.567524200E0
2.700975348E0,2.202732861E-1,-9.486116409E0,6.775797606E-1,9.512835496E0
2.702975114E0,2.322446555E-1,-9.399923325E0,6.680026650E-1,9.426490527E0
2.704974880E0,2.394274771E-1,-9.356825829E0,6.584255695E-1,9.383018668E0
2.706974646E0,2.394274771E-1,-9.301757812E0,6.751855016E-1,9.329303263E0
2.708974412E0,2.202732861E-1,-9.237112045E0,6.632141471E-1,9.263509716E0
2.710974178E0,2.226675600E-1,-9.186832428E0,6.656084061E-1,9.213604368E0
2.712973944E0,2.250618339E-1,-9.153312683E0,6.703969240E-1,9.180589193E0
2.714973777E0,2.370332032E-1,-9.088666916E0,6.656084061E-1,9.116089381E0
2.716973543E0,2.322446555E-1,-9.033598900E0,6.584255695E-1,9.060539217E0
2.718973309E0,2.370332032E-1,-9.000079155E0,6.560313106E-1,9.027069658E0
2.720973075E0,2.298503816E-1,-8.933039665E0,6.464542150E-1,8.959348855E0
2.722972875E0,2.418217510E-1,-8.877970695E0,6.416656375E-1,8.904413300E0
2.724972641E0,2.442160249E-1,-8.842057228E0,6.344828010E-1,8.868155722E0
2.726972407E0,2.298503816E-1,-8.786988258E0,6.368771195E-1,8.813036158E0
2.728972173E0,2.202732861E-1,-8.755863190E0,6.296942830E-1,8.781239970E0
2.730972006E0,2.226675600E-1,-8.731920242E0,6.296942830E-1,8.757426954E0
2.732971772E0,2.202732861E-1,-8.676852226E0,6.153286099E-1,8.701431731E0
2.734971538E0,2.298503816E-1,-8.614601135E0,6.201171875E-1,8.639949609E0
2.736971304E0,2.322446555E-1,-8.588263512E0,6.177229285E-1,8.613581679E0
2.738971070E0,2.178790122E-1,-8.540378571E0,6.105400920E-1,8.564945802E0
2.740970836E0,2.011190802E-1,-8.487704277E0,6.129343510E-1,8.512183110E0
2.742970602E0,2.011190802E-1,-8.456578255E0,6.201171875E-1,8.481669057E0
2.744970435E0,2.106961906E-1,-8.399115562E0,6.201171875E-1,8.424611590E0
2.746970268E0,1.987248063E-1,-8.356019020E0,6.009629965E-1,8.379958349E0
2.748970034E0,2.106961906E-1,-8.310527802E0,5.985686779E-1,8.334719533E0
2.750969800E0,2.130904645E-1,-8.286584854E0,5.961744189E-1,8.310735228E0
2.752969566E0,2.059076279E-1,-8.224333763E0,6.057515144E-1,8.249181699E0
2.754969332E0,2.059076279E-1,-8.166871071E0,6.153286099E-1,8.192607054E0
2.756969098E0,2.106961906E-1,-8.140534401E0,6.129343510E-1,8.166295472E0
2.758968864E0,2.178790122E-1,-8.099831581E0,6.105400920E-1,8.125730866E0
2.760968664E0,2.202732861E-1,-8.049551964E0,6.081457734E-1,8.075496791E0
2.762968464E0,2.250618339E-1,-8.016032219E0,6.057515144E-1,8.042037072E0
2.764968197E0,2.059076279E-1,-7.946598053E0,6.129343510E-1,7.972860659E0
2.766967930E0,2.011190802E-1,-7.884346962E0,5.961744189E-1,7.909412105E0
2.768967663E0,2.130904645E-1,-7.867587090E0,5.937801600E-1,7.892839099E0
2.770967396E0,2.083019018E-1,-7.841249943E0,6.009629965E-1,7.867003678E0
2.772967129E0,2.106961906E-1,-7.790970325E0,5.937801600E-1,7.816404952E0
2.774966862E0,2.106961906E-1,-7.771816254E0,5.865973234E-1,7.796769663E0
2.776966662E0,1.843591630E-1,-7.735901833E0,6.057515144E-1,7.761771728E0
2.778966395E0,1.915419847E-1,-7.719141960E0,6.129343510E-1,7.745807218E0
2.780966128E0,2.059076279E-1,-7.683228016E0,6.153286099E-1,7.710578447E0
2.782965828E0,2.059076279E-1,-7.654496670E0,6.009629965E-1,7.680812050E0
2.784965561E0,2.154847383E-1,-7.606611252E0,5.818088055E-1,7.631871978E0
2.786965294E0,2.059076279E-1,-7.587456703E0,6.009629965E-1,7.614003789E0
2.788965027E0,2.059076279E-1,-7.551542759E0,6.033572555E-1,7.578405899E0
2.790964760E0,2.106961906E-1,-7.525205612E0,6.009629965E-1,7.552103608E0
2.792964560E0,2.059076279E-1,-7.496474266E0,5.985686779E-1,7.523151523E0
2.794964293E0,2.106961906E-1,-7.482108593E0,6.009629965E-1,7.509160965E0
2.796964026E0,2.011190802E-1,-7.462954521E0,6.009629965E-1,7.489812788E0
2.798963759E0,2.083019018E-1,-7.441406250E0,6.057515144E-1,7.468925730E0
2.800963492E0,2.130904645E-1,-7.427040577E0,6.129343510E-1,7.455335525E0
2.802963225E0,2.130904645E-1,-7.405491829E0,6.009629965E-1,7.432891315E0
2.804962958E0,2.083019018E-1,-7.374366283E0,6.033572555E-1,7.401939458E0
2.806962691E0,1.939362586E-1,-7.362394810E0,5.913859010E-1,7.388653862E0
2.808962491E0,2.035133541E-1,-7.350423813E0,5.937801600E-1,7.377175801E0
2.810962224E0,2.035133541E-1,-7.324086666E0,5.865973234E-1,7.350357787E0
2.812961957E0,2.083019018E-1,-7.319298267E0,5.818088055E-1,7.345339903E0
2.814961690E0,2.106961906E-1,-7.309720993E0,5.865973234E-1,7.336246336E0
2.816961423E0,2.059076279E-1,-7.283383846E0,5.913859010E-1,7.310254133E0
2.818961156E0,2.035133541E-1,-7.269018173E0,5.913859010E-1,7.295874188E0
2.820960889E0,2.059076279E-1,-7.259441376E0,6.057515144E-1,7.287579978E0
2.822960622E0,2.154847383E-1,-7.249864101E0,5.913859010E-1,7.277135456E0
2.824960422E0,2.130904645E-1,-7.233104229E0,5.913859010E-1,7.260367871E0
2.826960155E0,2.130904645E-1,-7.201978683E0,5.842030644E-1,7.228775673E0
2.828959888E0,2.011190802E-1,-7.192401409E0,6.033572555E-1,7.220465836E0
2.830959621E0,2.011190802E-1,-7.185218811E0,6.033572555E-1,7.213311183E0
2.832959354E0,2.011190802E-1,-7.185218811E0,5.985686779E-1,7.212912221E0
2.834959087E0,1.963305324E-1,-7.187613010E0,5.961744189E-1,7.214967110E0
2.836958820E0,1.891477108E-1,-7.170853138E0,5.865973234E-1,7.197291713E0
2.838958620E0,1.939362586E-1,-7.166064739E0,5.842030644E-1,7.192453569E0
2.840958420E0,2.011190802E-1,-7.175641537E0,5.937801600E-1,7.202975443E0
2.842958153E0,1.939362586E-1,-7.185218811E0,5.961744189E-1,7.212517215E0
2.844957886E0,1.891477108E-1,-7.178035736E0,6.009629965E-1,7.205631853E0
2.846957619E0,1.747820675E-1,-7.173247337E0,5.985686779E-1,7.200299341E0
2.848957352E0,1.819648892E-1,-7.178035736E0,5.865973234E-1,7.204262951E0
2.850957085E0,1.915419847E-1,-7.180429935E0,5.818088055E-1,7.206508439E0
2.852956818E0,1.939362586E-1,-7.199584484E0,5.818088055E-1,7.225657721E0
2.854956618E0,1.939362586E-1,-7.209161282E0,5.913859010E-1,7.235976433E0
2.856956351E0,1.939362586E-1,-7.216344357E0,6.009629965E-1,7.243921153E0
2.858956084E0,1.867534369E-1,-7.228315830E0,5.937801600E-1,7.255067296E0
2.860955817E0,1.963305324E-1,-7.245075703E0,5.913859010E-1,7.271822667E0
2.862955550E0,1.987248063E-1,-7.254652500E0,5.818088055E-1,7.280657658E0
2.864955283E0,1.963305324E-1,-7.269018173E0,5.842030644E-1,7.295098635E0
2.866955016E0,1.771763414E-1,-7.280989647E0,5.722316504E-1,7.305590377E0
2.868954749E0,1.819648892E-1,-7.314509392E0,5.770202279E-1,7.339489846E0
2.870954549E0,1.819648892E-1,-7.333663940E0,5.842030644E-1,7.359146094E0
2.872954282E0,1.795706153E-1,-7.345634937E0,6.009629965E-1,7.372364259E0
2.874954015E0,1.819648892E-1,-7.362394810E0,5.842030644E-1,7.387777865E0
2.876953748E0,1.771763414E-1,-7.386337757E0,5.889915824E-1,7.411901780E0
2.878953481E0,1.891477108E-1,-7.410280704E0,5.818088055E-1,7.435491810E0
2.880953214E0,1.843591630E-1,-7.429434776E0,5.913859010E-1,7.455214731E0
2.882952947E0,1.843591630E-1,-7.450983047E0,5.865973234E-1,7.476311463E0
2.884952680E0,1.795706153E-1,-7.460560322E0,5.818088055E-1,7.485366217E0
2.886952480E0,1.771763414E-1,-7.498868465E0,5.722316504E-1,7.522756727E0
2.888952213E0,1.819648892E-1,-7.515628815E0,5.698373914E-1,7.539396684E0
2.890951946E0,2.011190802E-1,-7.549148560E0,5.722316504E-1,7.573476211E0
2.892951679E0,1.915419847E-1,-7.565908432E0,5.842030644E-1,7.590846590E0
2.894951412E0,1.819648892E-1,-7.568302631E0,5.865973234E-1,7.593181965E0
2.896951145E0,1.771763414E-1,-7.597033978E0,5.937801600E-1,7.622262892E0
2.898950878E0,1.795706153E-1,-7.625765324E0,5.842030644E-1,7.650218010E0
2.900950611E0,1.867534369E-1,-7.647313595E0,5.865973234E-1,7.672051778E0
2.902950411E0,1.867534369E-1,-7.676044941E0,5.865973234E-1,7.700690826E0
2.904950144E0,1.795706153E-1,-7.711959362E0,5.722316504E-1,7.735244784E0
2.906949877E0,1.747820675E-1,-7.740690231E0,5.770202279E-1,7.764134618E0
2.908949610E0,1.891477108E-1,-7.771816254E0,5.865973234E-1,7.796217106E0
2.910949343E0,1.915419847E-1,-7.814912796E0,5.961744189E-1,7.839960094E0
2.912949076E0,1.915419847E-1,-7.846038342E0,6.033572555E-1,7.871533902E0
2.914948809E0,1.891477108E-1,-7.869981289E0,5.961744189E-1,7.894796152E0
2.916948609E0,1.915419847E-1,-7.920260906E0,6.081457734E-1,7.945883364E0
2.918948409E0,1.771763414E-1,-7.972935200E0,5.961744189E-1,7.997156438E0
2.920948142E0,1.771763414E-1,-7.994483471E0,6.033572555E-1,8.019176853E0
2.922947875E0,1.963305324E-1,-8.035185814E0,5.961744189E-1,8.059663807E0
2.924947608E0,1.987248063E-1,-8.083071709E0,6.009629965E-1,8.107816989E0
2.926947341E0,1.939362586E-1,-8.109408379E0,6.033572555E-1,8.134135203E0
2.928947074E0,1.891477108E-1,-8.171659470E0,6.129343510E-1,8.196797171E0
2.930946807E0,1.819648892E-1,-8.209968567E0,6.033572555E-1,8.234120176E0
2.932946607E0,1.795706153E-1,-8.248276711E0,6.009629965E-1,8.272089870E0
2.934946340E0,1.891477108E-1,-8.315316200E0,6.057515144E-1,8.339496104E0
2.936946073E0,2.154847383E-1,-8.375173569E0,6.009629965E-1,8.399471561E0
2.938945806E0,2.154847383E-1,-8.403904915E0,6.033572555E-1,8.428291136E0
2.940945539E0,2.106961906E-1,-8.447001457E0,6.249057055E-1,8.472705214E0
2.942945272E0,2.106961906E-1,-8.502069473E0,6.177229285E-1,8.527083900E0
2.944945005E0,2.106961906E-1,-8.523618698E0,6.081457734E-1,8.547883357E0
2.946944738E0,2.083019018E-1,-8.581081390E0,6.033572555E-1,8.604788637E0
2.948944538E0,2.035133541E-1,-8.628966331E0,5.985686779E-1,8.652095821E0
2.950944271E0,2.059076279E-1,-8.696005821E0,6.105400920E-1,8.719843714E0
2.952944004E0,2.059076279E-1,-8.719948769E0,6.129343510E-1,8.743888894E0
2.954943737E0,2.154847383E-1,-8.784594536E0,6.249057055E-1,8.809429151E0
2.956943470E0,2.035133541E-1,-8.834874153E0,6.225114465E-1,8.859116180E0
2.958943203E0,2.178790122E-1,-8.856422424E0,6.249057055E-1,8.881114601E0
2.960942936E0,2.106961906E-1,-8.911490440E0,6.201171875E-1,8.935524611E0
2.962942669E0,2.083019018E-1,-8.966559410E0,6.368771195E-1,8.991562145E0
2.964942469E0,2.059076279E-1,-8.985713005E0,6.488484740E-1,9.011461619E0
2.966942202E0,1.963305324E-1,-9.052753448E0,6.392713785E-1,9.077420260E0
2.968941935E0,2.083019018E-1,-9.115004539E0,6.296942830E-1,9.139103475E0
2.970941668E0,2.083019018E-1,-9.146129608E0,6.368771195E-1,9.170642778E0
2.972941401E0,2.178790122E-1,-9.208380699E0,6.368771195E-1,9.232949628E0
2.974941134E0,2.226675600E-1,-9.268238068E0,6.584255695E-1,9.294263927E0
2.976940867E0,2.298503816E-1,-9.308940887E0,6.632141471E-1,9.335366337E0
2.978940600E0,2.346389294E-1,-9.366402626E0,6.680026650E-1,9.393124142E0
2.980940400E0,2.274561077E-1,-9.416683197E0,6.727912426E-1,9.443426643E0
2.982940133E0,2.274561077E-1,-9.447808266E0,6.823683381E-1,9.475148751E0
2.984939866E0,2.226675600E-1,-9.524425507E0,6.775797606E-1,9.551092943E0
2.986939599E0,2.178790122E-1,-9.579493523E0,6.967339516E-1,9.607268374E0
2.988939332E0,2.322446555E-1,-9.639349937E0,7.063110471E-1,9.667982214E0
2.990939065E0,2.394274771E-1,-9.677659035E0,7.015225291E-1,9.706005552E0
2.992938798E0,2.346389294E-1,-9.749486923E0,7.134938836E-1,9.778375336E0
2.994938598E0,2.466102988E-1,-9.802161217E0,7.206767201E-1,9.831711758E0
2.996938398E0,2.513988614E-1,-9.838075638E0,7.230709791E-1,9.867814615E0
2.998938131E0,2.394274771E-1,-9.902720451E0,7.230709791E-1,9.931970071E0
3.000937864E0,2.346389294E-1,-9.967366219E0,7.326480746E-1,9.997010451E0
3.002937597E0,2.346389294E-1,-1.000567436E1,7.326480746E-1,1.003520543E1
3.004937330E0,2.322446555E-1,-1.005356026E1,7.470137477E-1,1.008394967E1
3.006937063E0,2.490045726E-1,-1.011341667E1,7.470137477E-1,1.014402433E1
3.008936796E0,2.418217510E-1,-1.014933109E1,7.470137477E-1,1.017965760E1
3.010936596E0,2.250618339E-1,-1.021876526E1,7.613793612E-1,1.024956169E1
3.012936396E0,2.322446555E-1,-1.028101635E1,7.637736797E-1,1.031196320E1
3.014936129E0,2.418217510E-1,-1.030495834E1,7.709565163E-1,1.033658639E1
3.016935862E0,2.466102988E-1,-1.036960411E1,7.829278708E-1,1.040204221E1
3.018935595E0,2.585816681E-1,-1.043903828E1,7.805336118E-1,1.047137132E1
3.020935328E0,2.561874092E-1,-1.045819283E1,7.781392932E-1,1.049023021E1
3.022935061E0,2.657645047E-1,-1.050847244E1,7.972934842E-1,1.054202546E1
3.024934794E0,2.705530524E-1,-1.056354046E1,8.044763207E-1,1.059758313E1
3.026934594E0,2.825244367E-1,-1.058987713E1,8.140534163E-1,1.062487650E1
3.028934327E0,2.777358890E-1,-1.063536835E1,8.188419938E-1,1.067045919E1
3.030934060E0,2.657645047E-1,-1.069283104E1,8.260248303E-1,1.072798133E1
3.032933793E0,2.585816681E-1,-1.074790001E1,8.356019258E-1,1.078343404E1
3.034933526E0,2.513988614E-1,-1.076705360E1,8.356019258E-1,1.080235508E1
3.036933259E0,2.609759569E-1,-1.081015110E1,8.332076073E-1,1.084535431E1
3.038932992E0,2.585816681E-1,-1.087958431E1,8.499675393E-1,1.091579883E1
3.040932725E0,2.633702159E-1,-1.092028713E1,8.451790214E-1,1.095611074E1
3.042932525E0,2.729473412E-1,-1.096577835E1,8.523618579E-1,1.100224140E1
3.044932258E0,2.633702159E-1,-1.100648117E1,8.643332124E-1,1.104350775E1
3.046931991E0,2.537931204E-1,-1.103042412E1,8.667274714E-1,1.106733408E1
3.048931724E0,2.633702159E-1,-1.108309841E1,8.834874034E-1,1.112137511E1
3.050931457E0,2.609759569E-1,-1.113816643E1,8.906702399E-1,1.117676846E1
3.052931190E0,2.609759569E-1,-1.116450310E1,8.954587579E-1,1.120339610E1
3.054930923E0,2.657645047E-1,-1.122196579E1,8.882759809E-1,1.126020343E1
3.056930656E0,2.633702159E-1,-1.127224541E1,9.002473354E-1,1.131120355E1
3.058930456E0,2.633702159E-1,-1.129858303E1,9.098244309E-1,1.133821515E1
3.060930189E0,2.705530524E-1,-1.135125732E1,9.074301720E-1,1.139068353E1
3.062929922E0,2.753416002E-1,-1.140871906E1,8.978530765E-1,1.144730640E1
3.064929655E0,2.705530524E-1,-1.143505669E1,8.930644989E-1,1.147306779E1
3.066929388E0,2.657645047E-1,-1.148054790E1,9.050358534E-1,1.151923178E1
3.068929121E0,2.729473412E-1,-1.153082752E1,9.146129489E-1,1.157026363E1
3.070928854E0,2.777358890E-1,-1.157392406E1,9.194015265E-1,1.161370547E1
3.072928587E0,2.777358890E-1,-1.159786701E1,9.241901040E-1,1.163794586E1
3.074928387E0,2.849186957E-1,-1.164575291E1,9.361614585E-1,1.168679330E1
3.076928120E0,2.897072434E-1,-1.167927265E1,9.409499764E-1,1.172069652E1
3.078927853E0,2.873129845E-1,-1.170321560E1,9.289786220E-1,1.174354314E1
3.080927586E0,2.944957912E-1,-1.174391747E1,9.241901040E-1,1.178390651E1
3.082927319E0,2.681587934E-1,-1.177025509E1,9.194015265E-1,1.180915379E1
3.084927052E0,2.657645047E-1,-1.179180336E1,9.289786220E-1,1.183132531E1
3.086926785E0,2.777358890E-1,-1.181095791E1,9.385557175E-1,1.185144509E1
3.088926585E0,2.753416002E-1,-1.184687138E1,9.265843630E-1,1.188624133E1
3.090926385E0,2.729473412E-1,-1.186123753E1,9.289786220E-1,1.190069146E1
3.092926118E0,2.873129845E-1,-1.188518047E1,9.217957854E-1,1.192433525E1
3.094925851E0,2.705530524E-1,-1.191870022E1,9.385557175E-1,1.195865798E1
3.096925584E0,2.729473412E-1,-1.192109394E1,9.337671995E-1,1.196072331E1
3.098925317E0,2.873129845E-1,-1.195221996E1,9.385557175E-1,1.199245586E1
3.100925050E0,2.992843390E-1,-1.197616291E1,9.361614585E-1,1.201642407E1
3.102924783E0,2.968900800E-1,-1.198573971E1,9.337671995E-1,1.202572332E1
3.104924649E0,2.825244367E-1,-1.200010490E1,9.385557175E-1,1.204006747E1
3.106924415E0,2.849186957E-1,-1.202644253E1,9.457385540E-1,1.206693499E1
3.108924181E0,2.825244367E-1,-1.205756760E1,9.529213905E-1,1.209846336E1
3.110923947E0,2.849186957E-1,-1.206235695E1,9.433442950E-1,1.210254239E1
3.112923713E0,2.657645047E-1,-1.208869362E1,9.433442950E-1,1.212835696E1
3.114923479E0,2.801301479E-1,-1.211742496E1,9.361614585E-1,1.215676186E1
3.116923245E0,2.777358890E-1,-1.212460804E1,9.289786220E-1,1.216331610E1
3.118923011E0,2.753416002E-1,-1.213179016E1,9.217957854E-1,1.216987481E1
3.120922844E0,2.849186957E-1,-1.214855003E1,9.122186899E-1,1.218608180E1
3.122922610E0,2.921015322E-1,-1.214855003E1,9.265843630E-1,1.218733563E1
3.124922376E0,2.849186957E-1,-1.216530991E1,9.265843630E-1,1.220387243E1
3.126922142E0,2.897072434E-1,-1.216291618E1,9.289786220E-1,1.220178109E1
3.128921908E0,2.801301479E-1,-1.217249298E1,9.337671995E-1,1.221146918E1
3.130921674E0,2.705530524E-1,-1.218446445E1,9.361614585E-1,1.222336988E1
3.132921440E0,2.825244367E-1,-1.219883060E1,9.361614585E-1,1.223796088E1
3.134921206E0,2.777358890E-1,-1.221080112E1,9.265843630E-1,1.224905547E1
3.136921039E0,2.825244367E-1,-1.222516727E1,9.217957854E-1,1.226312531E1
3.138920805E0,2.801301479E-1,-1.223713875E1,8.954587579E-1,1.227305520E1
3.140920571E0,2.705530524E-1,-1.223235035E1,8.978530765E-1,1.226824088E1
3.142920337E0,2.681587934E-1,-1.223713875E1,9.194015265E-1,1.227455796E1
3.144920103E0,2.777358890E-1,-1.224432182E1,9.146129489E-1,1.228157445E1
3.146919869E0,2.633702159E-1,-1.224671555E1,9.002473354E-1,1.228258323E1
3.148919635E0,2.681587934E-1,-1.223235035E1,9.098244309E-1,1.226907025E1
3.150919401E0,2.681587934E-1,-1.225629234E1,9.074301720E-1,1.229276375E1
3.152919234E0,2.729473412E-1,-1.223953247E1,8.810931444E-1,1.227424053E1
3.154919000E0,2.657645047E-1,-1.222037888E1,9.050358534E-1,1.225672797E1
3.156918766E0,2.753416002E-1,-1.220601273E1,9.098244309E-1,1.224297105E1
3.158918532E0,2.777358890E-1,-1.220840740E1,8.667274714E-1,1.224228594E1
3.160918298E0,2.753416002E-1,-1.218925285E1,8.810931444E-1,1.222415736E1
3.162918064E0,2.705530524E-1,-1.215573311E1,8.930644989E-1,1.219149747E1
3.164917764E0,2.729473412E-1,-1.213897324E1,8.571503758E-1,1.217225855E1
3.166917564E0,2.729473412E-1,-1.213418484E1,8.619389534E-1,1.216782153E1
3.168917364E0,2.705530524E-1,-1.210066509E1,8.930644989E-1,1.213659173E1
3.170917097E0,2.609759569E-1,-1.209348202E1,8.427847624E-1,1.212562171E1
3.172916830E0,2.681587934E-1,-1.207911682E1,8.451790214E-1,1.211161838E1
3.174916563E0,2.777358890E-1,-1.205038548E1,8.882759809E-1,1.208627161E1
3.176916296E0,2.729473412E-1,-1.204799080E1,8.595446348E-1,1.208169688E1
3.178329536E0,2.705530524E-1,-1.203601933E1,8.523618579E-1,1.206919554E1
3.180329269E0,2.753416002E-1,-1.200489426E1,8.858816624E-1,1.204068459E1
3.182329069E0,2.681587934E-1,-1.200010490E1,8.451790214E-1,1.203281989E1
3.184328802E0,2.657645047E-1,-1.199531651E1,8.308133483E-1,1.202699047E1
3.186328535E0,2.633702159E-1,-1.195221996E1,8.643332124E-1,1.198632545E1
3.188328268E0,2.729473412E-1,-1.192827702E1,8.451790214E-1,1.196129677E1
3.190328001E0,2.585816681E-1,-1.191151714E1,8.260248303E-1,1.194292352E1
3.192327734E0,2.513988614E-1,-1.187799740E1,8.451790214E-1,1.191068223E1
3.194327467E0,2.561874092E-1,-1.185644913E1,8.523618579E-1,1.188980818E1
3.196327200E0,2.561874092E-1,-1.182053471E1,8.188419938E-1,1.185163174E1
3.198327000E0,2.585816681E-1,-1.180616951E1,8.379961848E-1,1.183869674E1
3.200326733E0,2.585816681E-1,-1.177743816E1,8.667274714E-1,1.181211796E1
3.202326466E0,2.657645047E-1,-1.174631214E1,8.212362528E-1,1.177798407E1
3.204326199E0,2.729473412E-1,-1.172955227E1,8.284190893E-1,1.176193755E1
3.206325932E0,2.513988614E-1,-1.167687798E1,8.739103079E-1,1.171223292E1
3.208325665E0,2.609759569E-1,-1.165293503E1,8.212362528E-1,1.168475212E1
3.210325398E0,2.561874092E-1,-1.163378143E1,8.212362528E-1,1.166554463E1
3.212325131E0,2.609759569E-1,-1.157631874E1,8.763045669E-1,1.161237158E1
3.214324931E0,2.753416002E-1,-1.154279900E1,8.284190893E-1,1.157576347E1
3.216324664E0,2.633702159E-1,-1.151167297E1,8.116591573E-1,1.154325643E1
3.218324397E0,2.561874092E-1,-1.144702816E1,8.475732803E-1,1.148122233E1
3.220324130E0,2.537931204E-1,-1.141829681E1,8.212362528E-1,1.145060444E1
3.222323863E0,2.585816681E-1,-1.139195919E1,8.020820618E-1,1.142308777E1
3.224323596E0,2.657645047E-1,-1.133210278E1,8.427847624E-1,1.136650651E1
3.226323329E0,2.729473412E-1,-1.129379463E1,8.212362528E-1,1.132690277E1
3.228323062E0,2.753416002E-1,-1.123154354E1,8.044763207E-1,1.126368348E1
3.230322862E0,2.729473412E-1,-1.120041752E1,8.379961848E-1,1.123503852E1
3.232322595E0,2.657645047E-1,-1.114774323E1,8.643332124E-1,1.118435880E1
3.234322328E0,2.609759569E-1,-1.109746361E1,8.116591573E-1,1.113016611E1
3.236322061E0,2.537931204E-1,-1.106154919E1,8.308133483E-1,1.109560869E1
3.238321794E0,2.561874092E-1,-1.100648117E1,8.547561169E-1,1.104259334E1
3.240321527E0,2.561874092E-1,-1.094423008E1,8.379961848E-1,1.097925506E1
3.242321260E0,2.585816681E-1,-1.091549873E1,8.332076073E-1,1.095030648E1
3.244321060E0,2.681587934E-1,-1.086521912E1,8.212362528E-1,1.089951029E1
3.246320860E0,2.585816681E-1,-1.081254482E1,8.308133483E-1,1.084749929E1
3.248320593E0,2.681587934E-1,-1.078860188E1,8.308133483E-1,1.082386670E1
3.250320326E0,2.873129845E-1,-1.074790001E1,8.308133483E-1,1.078379127E1
3.252320059E0,2.801301479E-1,-1.068804264E1,8.308133483E-1,1.072394420E1
3.254319792E0,2.729473412E-1,-1.066409969E1,8.260248303E-1,1.069952520E1
3.256319525E0,2.561874092E-1,-1.060184860E1,8.332076073E-1,1.063762477E1
3.258319258E0,2.585816681E-1,-1.054438591E1,8.356019258E-1,1.058060345E1
3.260319058E0,2.561874092E-1,-1.051326084E1,8.332076073E-1,1.054933744E1
3.262318858E0,2.537931204E-1,-1.045340347E1,8.236305118E-1,1.048887136E1
3.264318591E0,2.537931204E-1,-1.041988373E1,8.092648983E-1,1.045434348E1
3.266318324E0,2.585816681E-1,-1.040073013E1,8.068706393E-1,1.043518529E1
3.268318057E0,2.513988614E-1,-1.033608437E1,8.212362528E-1,1.037170528E1
3.270317790E0,2.585816681E-1,-1.026665020E1,8.260248303E-1,1.030307177E1
3.272317523E0,2.490045726E-1,-1.020200539E1,8.188419938E-1,1.023784252E1
3.274317256E0,2.490045726E-1,-1.016848469E1,8.068706393E-1,1.020348589E1
3.276317056E0,2.609759569E-1,-1.011341667E1,8.260248303E-1,1.015044936E1
3.278316789E0,2.490045726E-1,-1.005595398E1,8.308133483E-1,1.009328809E1
3.280316522E0,2.513988614E-1,-1.002004051E1,8.260248303E-1,1.005717308E1
3.282316255E0,2.394274771E-1,-9.964971542E0,8.068706393E-1,1.000045117E1
3.284315988E0,2.466102988E-1,-9.895537376E0,8.020820618E-1,9.931052927E0
3.286315721E0,2.466102988E-1,-9.859623909E0,8.020820618E-1,9.895268359E0
3.288315454E0,2.466102988E-1,-9.792584419E0,7.972934842E-1,9.828082374E0
